onset	duration	object	trial_type	map	stayswitch	distance	value	counterfactual_value	value_diff	choicetype	object1	object2	chosen_distance	unchosen_distance	chosen_value	unchosen_value	counterfactual_chosen_value	counterfactual_unchosen_value	button	response_time	cr
8.79807046777569	2.01614812901244	9	object_onset	2	n/a	NaN	NaN	NaN	NaN	n/a	NaN	NaN	NaN	NaN	NaN	NaN	NaN	NaN	NaN	NaN	NaN
15.3963016392663	2.01625724881887	9	object_onset	1	switch	0	71	19	52	n/a	NaN	NaN	NaN	NaN	NaN	NaN	NaN	NaN	NaN	NaN	NaN
21.328235849971	2.01612988905981	2	object_onset	1	stay	0.9	5	16	-11	n/a	NaN	NaN	NaN	NaN	NaN	NaN	NaN	NaN	NaN	NaN	NaN
29.1595961737912	2.01615644898266	1	object_onset	1	stay	0.524785670536077	1	44	-43	n/a	NaN	NaN	NaN	NaN	NaN	NaN	NaN	NaN	NaN	NaN	NaN
36.2411156971939	2.0161929288879	12	object_onset	2	switch	0.763675323681471	72	18	54	n/a	NaN	NaN	NaN	NaN	NaN	NaN	NaN	NaN	NaN	NaN	NaN
41.4730429318734	7.09824525145814	12	choice	2	n/a	NaN	NaN	NaN	NaN	d	5	2	0.9	0.814984662432368	69.7128832525924	56.1629049914503	52.9909262905921	12.9906848652376	48.5501611838117	7.07711825193837	-1
52.8701580094639	2.01625916874036	9	object_onset	1	switch	0.458911756223351	71	19	52	n/a	NaN	NaN	NaN	NaN	NaN	NaN	NaN	NaN	NaN	NaN	NaN
60.3517116447911	2.01614492898807	4	object_onset	2	switch	0.9	2	14	-12	n/a	NaN	NaN	NaN	NaN	NaN	NaN	NaN	NaN	NaN	NaN	NaN
66.5168543676846	2.01605180930346	4	object_onset	1	switch	0	14	2	12	n/a	NaN	NaN	NaN	NaN	NaN	NaN	NaN	NaN	NaN	NaN	NaN
72.9485680989455	2.01614588894881	4	object_onset	2	switch	0	2	14	-12	n/a	NaN	NaN	NaN	NaN	NaN	NaN	NaN	NaN	NaN	NaN	NaN
78.5304677817039	2.01620700885542	6	object_onset	1	switch	0.458911756223351	44	13	31	n/a	NaN	NaN	NaN	NaN	NaN	NaN	NaN	NaN	NaN	NaN	NaN
84.3289923283737	2.01617020904087	1	object_onset	1	stay	0.9	1	44	-43	n/a	NaN	NaN	NaN	NaN	NaN	NaN	NaN	NaN	NaN	NaN	NaN
91.7603515002411	2.01630332879722	11	object_onset	1	stay	0.569209978830308	3	100	-97	n/a	NaN	NaN	NaN	NaN	NaN	NaN	NaN	NaN	NaN	NaN	NaN
96.9924675344955	2.01619996898808	10	object_onset	2	switch	0.524785670536077	50	5	45	n/a	NaN	NaN	NaN	NaN	NaN	NaN	NaN	NaN	NaN	NaN	NaN
101.941225392977	2.01614908897318	5	object_onset	1	switch	1.27914033631967	71	3	68	n/a	NaN	NaN	NaN	NaN	NaN	NaN	NaN	NaN	NaN	NaN	NaN
107.089921427425	2.01620028889738	2	object_onset	2	switch	0.853814968245462	16	5	11	n/a	NaN	NaN	NaN	NaN	NaN	NaN	NaN	NaN	NaN	NaN	NaN
113.638324214611	2.01614844892174	5	object_onset	2	stay	0.853814968245462	3	71	-68	n/a	NaN	NaN	NaN	NaN	NaN	NaN	NaN	NaN	NaN	NaN	NaN
118.020546520595	3.78235145797953	5	choice	2	n/a	NaN	NaN	NaN	NaN	d	7	9	0.569209978830308	0.524785670536077	0.72290938457687	16.3922524520963	19.4955359903515	1.4210854715202e-14	121.782628577435	3.76208205684088	-1
126.451715292875	2.01619644882157	1	object_onset	2	stay	1.26	44	1	43	n/a	NaN	NaN	NaN	NaN	NaN	NaN	NaN	NaN	NaN	NaN	NaN
133.949863456422	2.01615164894611	7	object_onset	2	stay	1.53792067415716	2	90	-88	n/a	NaN	NaN	NaN	NaN	NaN	NaN	NaN	NaN	NaN	NaN	NaN
139.781725219218	2.0161318089813	6	object_onset	1	switch	0.763675323681471	44	13	31	n/a	NaN	NaN	NaN	NaN	NaN	NaN	NaN	NaN	NaN	NaN	NaN
146.013457574183	2.01619484904222	2	object_onset	2	switch	0.524785670536077	16	5	11	n/a	NaN	NaN	NaN	NaN	NaN	NaN	NaN	NaN	NaN	NaN	NaN
152.961739593651	2.01613404904492	2	object_onset	2	stay	0	16	5	11	n/a	NaN	NaN	NaN	NaN	NaN	NaN	NaN	NaN	NaN	NaN	NaN
160.576491053216	2.01616412890144	3	object_onset	2	stay	0.36	50	11	39	n/a	NaN	NaN	NaN	NaN	NaN	NaN	NaN	NaN	NaN	NaN	NaN
167.957952720812	2.01616348908283	2	object_onset	1	switch	0.36	5	16	-11	n/a	NaN	NaN	NaN	NaN	NaN	NaN	NaN	NaN	NaN	NaN	NaN
175.572674420662	2.01623260881752	5	object_onset	2	switch	0.853814968245462	3	71	-68	n/a	NaN	NaN	NaN	NaN	NaN	NaN	NaN	NaN	NaN	NaN	NaN
181.604380919598	2.01626012893394	3	object_onset	2	stay	0.814984662432368	50	11	39	n/a	NaN	NaN	NaN	NaN	NaN	NaN	NaN	NaN	NaN	NaN	NaN
188.652723866981	2.01606972911395	7	object_onset	2	stay	1.08747413762351	2	90	-88	n/a	NaN	NaN	NaN	NaN	NaN	NaN	NaN	NaN	NaN	NaN	NaN
195.117782173911	2.01613820903003	7	object_onset	2	stay	0	2	90	-88	n/a	NaN	NaN	NaN	NaN	NaN	NaN	NaN	NaN	NaN	NaN	NaN
202.899126593722	2.01619772892445	5	object_onset	1	switch	0.569209978830308	71	3	68	n/a	NaN	NaN	NaN	NaN	NaN	NaN	NaN	NaN	NaN	NaN	NaN
208.314435556298	2.01619068905711	5	object_onset	2	switch	0	3	71	-68	n/a	NaN	NaN	NaN	NaN	NaN	NaN	NaN	NaN	NaN	NaN	NaN
214.5960993357	2.01626684865914	2	object_onset	2	stay	0.853814968245462	16	5	11	n/a	NaN	NaN	NaN	NaN	NaN	NaN	NaN	NaN	NaN	NaN	NaN
219.461627913872	4.53219129820354	2	choice	2	n/a	NaN	NaN	NaN	NaN	d	8	11	0.853814968245462	1.20747670784989	83.8378807534661	0	1.88362051778864	38.7004681213976	223.983042592648	4.52141467877664	1
226.859793549404	2.01624860870652	8	object_onset	2	stay	1.20747670784989	16	44	-28	n/a	NaN	NaN	NaN	NaN	NaN	NaN	NaN	NaN	NaN	NaN	NaN
233.874733040575	2.01611388917081	6	object_onset	1	switch	0.814984662432368	44	13	31	n/a	NaN	NaN	NaN	NaN	NaN	NaN	NaN	NaN	NaN	NaN	NaN
239.223310291301	2.01615964900702	8	object_onset	2	switch	0.814984662432368	16	44	-28	n/a	NaN	NaN	NaN	NaN	NaN	NaN	NaN	NaN	NaN	NaN	NaN
244.771914998069	11.3471538934391	8	choice	2	n/a	NaN	NaN	NaN	NaN	d	12	7	0.524785670536077	0.524785670536077	14.272887645719	56.1629049914503	46.7766790247836	25.7097832561599	256.103766840883	11.3318518428132	1
260.251349597471	2.01615292904899	8	object_onset	1	switch	0	44	16	28	n/a	NaN	NaN	NaN	NaN	NaN	NaN	NaN	NaN	NaN	NaN	NaN
267.966092225164	2.01619516895153	11	object_onset	1	stay	0.853814968245462	3	100	-97	n/a	NaN	NaN	NaN	NaN	NaN	NaN	NaN	NaN	NaN	NaN	NaN
274.164512964198	2.01618076907471	12	object_onset	1	stay	0.36	18	72	-54	n/a	NaN	NaN	NaN	NaN	NaN	NaN	NaN	NaN	NaN	NaN	NaN
281.979238759959	2.01614684890956	1	object_onset	2	switch	0.763675323681471	44	1	43	n/a	NaN	NaN	NaN	NaN	NaN	NaN	NaN	NaN	NaN	NaN	NaN
289.710625835694	2.01612156908959	12	object_onset	1	switch	0.763675323681471	18	72	-54	n/a	NaN	NaN	NaN	NaN	NaN	NaN	NaN	NaN	NaN	NaN	NaN
295.04261463834	2.0161577288527	4	object_onset	2	switch	1.08747413762351	2	14	-12	n/a	NaN	NaN	NaN	NaN	NaN	NaN	NaN	NaN	NaN	NaN	NaN
300.024537872989	3.36596857733093	4	choice	2	n/a	NaN	NaN	NaN	NaN	d	5	12	0.524785670536077	1.08747413762351	0.93905438200614	70.6519376345985	56.8490675010205	3.85814121042835	303.371323767118	3.34678589412943	1
309.189044117229	2.01615900895558	6	object_onset	2	stay	0.458911756223351	13	44	-31	n/a	NaN	NaN	NaN	NaN	NaN	NaN	NaN	NaN	NaN	NaN	NaN
315.037542328006	2.01604828913696	6	object_onset	1	switch	0	44	13	31	n/a	NaN	NaN	NaN	NaN	NaN	NaN	NaN	NaN	NaN	NaN	NaN
321.6358813392	4.88213494629599	6	choice	1	n/a	NaN	NaN	NaN	NaN	d	9	1	0.458911756223351	0.9	27.2811430344321	42.8345172613902	5.80500911870512	31.2864223035111	326.500253759557	4.86437242035754	1
329.933814847143	2.01613564905711	3	object_onset	2	switch	0.458911756223351	50	11	39	n/a	NaN	NaN	NaN	NaN	NaN	NaN	NaN	NaN	NaN	NaN	NaN
336.232199874241	2.01615548902191	8	object_onset	1	switch	0.9	44	16	28	n/a	NaN	NaN	NaN	NaN	NaN	NaN	NaN	NaN	NaN	NaN	NaN
343.796880710172	2.01624668878503	4	object_onset	2	switch	1.26	2	14	-12	n/a	NaN	NaN	NaN	NaN	NaN	NaN	NaN	NaN	NaN	NaN	NaN
348.845727656269	2.01612380915321	5	object_onset	2	stay	0.524785670536077	3	71	-68	n/a	NaN	NaN	NaN	NaN	NaN	NaN	NaN	NaN	NaN	NaN	NaN
356.043863595929	2.01620572875254	7	object_onset	1	switch	0.569209978830308	90	2	88	n/a	NaN	NaN	NaN	NaN	NaN	NaN	NaN	NaN	NaN	NaN	NaN
362.85885531106	2.01615452906117	4	object_onset	1	stay	1.08747413762351	14	2	12	n/a	NaN	NaN	NaN	NaN	NaN	NaN	NaN	NaN	NaN	NaN	NaN
370.09036558657	2.01616636896506	1	object_onset	2	switch	1.08747413762351	44	1	43	n/a	NaN	NaN	NaN	NaN	NaN	NaN	NaN	NaN	NaN	NaN	NaN
376.738671861822	2.01618236885406	2	object_onset	1	switch	0.524785670536077	5	16	-11	n/a	NaN	NaN	NaN	NaN	NaN	NaN	NaN	NaN	NaN	NaN	NaN
381.804054456297	2.01619452890009	8	object_onset	1	stay	1.20747670784989	44	16	28	n/a	NaN	NaN	NaN	NaN	NaN	NaN	NaN	NaN	NaN	NaN	NaN
389.0689089878	2.01617212896235	6	object_onset	2	switch	0.814984662432368	13	44	-31	n/a	NaN	NaN	NaN	NaN	NaN	NaN	NaN	NaN	NaN	NaN	NaN
395.600653566886	5.46524806669913	6	choice	2	n/a	NaN	NaN	NaN	NaN	d	11	2	0.524785670536077	0.9	2.96273492775089	86.800615681217	38.7004681213976	40.5840886391862	401.046297191177	5.44564362429082	1
406.031318980036	2.01612540893257	12	object_onset	1	switch	0.648999229583518	18	72	-54	n/a	NaN	NaN	NaN	NaN	NaN	NaN	NaN	NaN	NaN	NaN	NaN
411.346614694688	2.01615420891903	8	object_onset	1	stay	0.524785670536077	44	16	28	n/a	NaN	NaN	NaN	NaN	NaN	NaN	NaN	NaN	NaN	NaN	NaN
417.911653929623	2.01615644898266	1	object_onset	2	switch	1.27914033631967	44	1	43	n/a	NaN	NaN	NaN	NaN	NaN	NaN	NaN	NaN	NaN	NaN	NaN
423.176874860423	4.18236668989994	1	choice	2	n/a	NaN	NaN	NaN	NaN	d	11	10	0.569209978830308	1.08747413762351	55.5141933777059	5.74709315020331	2.25042862220399	4.13404913999263	427.34051454626	4.16363968583755	1
431.974745008629	2.01615836890414	11	object_onset	1	switch	0.569209978830308	3	100	-97	n/a	NaN	NaN	NaN	NaN	NaN	NaN	NaN	NaN	NaN	NaN	NaN
439.289602644043	2.01615260890685	2	object_onset	2	switch	0.853814968245462	16	5	11	n/a	NaN	NaN	NaN	NaN	NaN	NaN	NaN	NaN	NaN	NaN	NaN
444.188369558426	2.01615580893122	4	object_onset	1	switch	0.569209978830308	14	2	12	n/a	NaN	NaN	NaN	NaN	NaN	NaN	NaN	NaN	NaN	NaN	NaN
449.503667833051	5.49863488273695	4	choice	1	n/a	NaN	NaN	NaN	NaN	d	10	1	1.08747413762351	1.53792067415716	13.2665927948019	9.13254365480929	42.8127200189084	48.5598131691118	454.992257294944	5.48858946189284	1
460.817476830445	2.01616508909501	12	object_onset	2	switch	1.08747413762351	72	18	54	n/a	NaN	NaN	NaN	NaN	NaN	NaN	NaN	NaN	NaN	NaN	NaN
467.31587747368	2.0161321288906	9	object_onset	2	stay	0.458911756223351	19	71	-52	n/a	NaN	NaN	NaN	NaN	NaN	NaN	NaN	NaN	NaN	NaN	NaN
472.981003236491	2.01623164885677	8	object_onset	2	stay	0.36	16	44	-28	n/a	NaN	NaN	NaN	NaN	NaN	NaN	NaN	NaN	NaN	NaN	NaN
480.162609607913	2.01616348885	11	object_onset	2	stay	0.853814968245462	100	3	97	n/a	NaN	NaN	NaN	NaN	NaN	NaN	NaN	NaN	NaN	NaN	NaN
486.011129578808	2.01615868881345	11	object_onset	1	switch	0	3	100	-97	n/a	NaN	NaN	NaN	NaN	NaN	NaN	NaN	NaN	NaN	NaN	NaN
492.759424782125	2.01616220874712	7	object_onset	2	switch	1.26	2	90	-88	n/a	NaN	NaN	NaN	NaN	NaN	NaN	NaN	NaN	NaN	NaN	NaN
498.058095568558	2.01615900895558	3	object_onset	1	switch	1.08747413762351	11	50	-39	n/a	NaN	NaN	NaN	NaN	NaN	NaN	NaN	NaN	NaN	NaN	NaN
504.489807379665	2.01619612891227	3	object_onset	2	switch	0	50	11	39	n/a	NaN	NaN	NaN	NaN	NaN	NaN	NaN	NaN	NaN	NaN	NaN
510.854784278898	2.01631196867675	12	object_onset	1	switch	0.458911756223351	18	72	-54	n/a	NaN	NaN	NaN	NaN	NaN	NaN	NaN	NaN	NaN	NaN	NaN
517.886444058036	2.01615836913697	12	object_onset	1	stay	0	18	72	-54	n/a	NaN	NaN	NaN	NaN	NaN	NaN	NaN	NaN	NaN	NaN	NaN
525.084652317688	2.0161638087593	2	object_onset	2	switch	0.814984662432368	16	5	11	n/a	NaN	NaN	NaN	NaN	NaN	NaN	NaN	NaN	NaN	NaN	NaN
530.899876992451	2.01610364904627	9	object_onset	1	switch	0.9	71	19	52	n/a	NaN	NaN	NaN	NaN	NaN	NaN	NaN	NaN	NaN	NaN	NaN
537.798087107716	4.29892870620824	9	choice	1	n/a	NaN	NaN	NaN	NaN	d	2	12	0.458911756223351	0.9	52.9909262905921	65.9816111558297	53.3206308004961	2.84227419095423	542.088891669409	4.29080456169322	1
546.745865448145	2.01616188883781	5	object_onset	1	stay	0.524785670536077	71	3	68	n/a	NaN	NaN	NaN	NaN	NaN	NaN	NaN	NaN	NaN	NaN	NaN
550.944800426019	2.63264454528689	5	choice	1	n/a	NaN	NaN	NaN	NaN	d	4	3	0.524785670536077	0.814984662432368	56.8490675010205	59.8748977484675	0.93905438200614	47.6207587871056	553.571522102691	2.62672167667188	1
556.776671148837	2.01612860918976	7	object_onset	1	stay	0.569209978830308	90	2	88	n/a	NaN	NaN	NaN	NaN	NaN	NaN	NaN	NaN	NaN	NaN	NaN
561.958695759298	2.01614652900025	10	object_onset	1	stay	1.08747413762351	5	50	-45	n/a	NaN	NaN	NaN	NaN	NaN	NaN	NaN	NaN	NaN	NaN	NaN
569.706748723052	2.01615516911261	8	object_onset	2	switch	0.569209978830308	16	44	-28	n/a	NaN	NaN	NaN	NaN	NaN	NaN	NaN	NaN	NaN	NaN	NaN
575.721891734051	2.01618524896912	5	object_onset	2	stay	0.853814968245462	3	71	-68	n/a	NaN	NaN	NaN	NaN	NaN	NaN	NaN	NaN	NaN	NaN	NaN
581.786926169181	2.01627164869569	12	object_onset	1	switch	0.9	18	72	-54	n/a	NaN	NaN	NaN	NaN	NaN	NaN	NaN	NaN	NaN	NaN	NaN
587.068916987861	9.21446486818604	12	choice	1	n/a	NaN	NaN	NaN	NaN	d	6	8	0.524785670536077	0.648999229583518	25.7097832561599	25.70978325616	56.1629049914503	59.1256399192012	596.265439810464	9.19652282260358	1
600.73214259441	2.01626812876202	6	object_onset	2	switch	0.648999229583518	13	44	-31	n/a	NaN	NaN	NaN	NaN	NaN	NaN	NaN	NaN	NaN	NaN	NaN
607.43057677336	2.01615804899484	10	object_onset	2	stay	1.08747413762351	50	5	45	n/a	NaN	NaN	NaN	NaN	NaN	NaN	NaN	NaN	NaN	NaN	NaN
613.295725832228	2.01616764906794	7	object_onset	1	switch	1.08747413762351	90	2	88	n/a	NaN	NaN	NaN	NaN	NaN	NaN	NaN	NaN	NaN	NaN	NaN
618.844342378899	2.01618332904764	11	object_onset	1	stay	1.26	3	100	-97	n/a	NaN	NaN	NaN	NaN	NaN	NaN	NaN	NaN	NaN	NaN	NaN
623.926421581302	2.01615004916675	1	object_onset	2	switch	0.569209978830308	44	1	43	n/a	NaN	NaN	NaN	NaN	NaN	NaN	NaN	NaN	NaN	NaN	NaN
631.057919568848	2.01615324895829	8	object_onset	1	switch	1.27914033631967	44	16	28	n/a	NaN	NaN	NaN	NaN	NaN	NaN	NaN	NaN	NaN	NaN	NaN
636.239977139281	2.01614364911802	1	object_onset	1	stay	1.27914033631967	1	44	-43	n/a	NaN	NaN	NaN	NaN	NaN	NaN	NaN	NaN	NaN	NaN	NaN
642.221811094321	2.01612988882698	7	object_onset	2	switch	1.53792067415716	2	90	-88	n/a	NaN	NaN	NaN	NaN	NaN	NaN	NaN	NaN	NaN	NaN	NaN
647.020598040661	8.23126227594912	7	choice	2	n/a	NaN	NaN	NaN	NaN	d	6	5	0.569209978830308	0.763675323681471	0.72290938457687	11.3101527179681	19.4955359903515	46.7766790247836	655.237546104006	8.21694806334563	1
659.417483038502	2.01615196908824	11	object_onset	2	stay	1.26	100	3	97	n/a	NaN	NaN	NaN	NaN	NaN	NaN	NaN	NaN	NaN	NaN	NaN
665.982501153601	4.63212742633186	11	choice	2	n/a	NaN	NaN	NaN	NaN	d	12	9	0.36	0.814984662432368	27.6749757620158	80.9956065625119	14.8743053830263	67.8652316736184	670.601279805647	4.61877865204588	1
674.796937990002	2.01615996891633	10	object_onset	2	stay	0.524785670536077	50	5	45	n/a	NaN	NaN	NaN	NaN	NaN	NaN	NaN	NaN	NaN	NaN	NaN
681.345246057259	2.96595014538616	10	choice	2	n/a	NaN	NaN	NaN	NaN	d	4	8	0.569209978830308	1.53792067415716	34.0707805259635	48.5598131691118	38.7004681213976	9.13254365480929	684.299215105595	2.95396904833615	1
690.109738029307	2.0161670090165	10	object_onset	2	stay	0	50	5	45	n/a	NaN	NaN	NaN	NaN	NaN	NaN	NaN	NaN	NaN	NaN	NaN
696.274733872619	2.01628348883241	10	object_onset	1	switch	0	5	50	-45	n/a	NaN	NaN	NaN	NaN	NaN	NaN	NaN	NaN	NaN	NaN	NaN
701.856746835168	2.01616988889873	5	object_onset	2	switch	1.27914033631967	3	71	-68	n/a	NaN	NaN	NaN	NaN	NaN	NaN	NaN	NaN	NaN	NaN	NaN
707.905229302123	2.01615900895558	3	object_onset	1	switch	0.814984662432368	11	50	-39	n/a	NaN	NaN	NaN	NaN	NaN	NaN	NaN	NaN	NaN	NaN	NaN
713.387207576772	2.01616860879585	1	object_onset	1	stay	0.458911756223351	1	44	-43	n/a	NaN	NaN	NaN	NaN	NaN	NaN	NaN	NaN	NaN	NaN	NaN
718.985828507226	2.01614044909365	4	object_onset	1	stay	1.08747413762351	14	2	12	n/a	NaN	NaN	NaN	NaN	NaN	NaN	NaN	NaN	NaN	NaN	NaN
724.967632702319	2.01615292881615	3	object_onset	1	stay	0.763675323681471	11	50	-39	n/a	NaN	NaN	NaN	NaN	NaN	NaN	NaN	NaN	NaN	NaN	NaN
729.816409952706	2.0161161290016	3	object_onset	1	stay	0	11	50	-39	n/a	NaN	NaN	NaN	NaN	NaN	NaN	NaN	NaN	NaN	NaN	NaN
736.731328195892	2.01604444929399	8	object_onset	2	switch	0.9	16	44	-28	n/a	NaN	NaN	NaN	NaN	NaN	NaN	NaN	NaN	NaN	NaN	NaN
742.779786022846	2.01614876906388	5	object_onset	1	switch	0.853814968245462	71	3	68	n/a	NaN	NaN	NaN	NaN	NaN	NaN	NaN	NaN	NaN	NaN	NaN
749.294825993944	2.01605660934001	4	object_onset	1	stay	0.524785670536077	14	2	12	n/a	NaN	NaN	NaN	NaN	NaN	NaN	NaN	NaN	NaN	NaN	NaN
755.093333580997	2.01615708880126	10	object_onset	2	switch	1.53792067415716	50	5	45	n/a	NaN	NaN	NaN	NaN	NaN	NaN	NaN	NaN	NaN	NaN	NaN
760.442024431424	2.01616764906794	4	object_onset	2	stay	1.53792067415716	2	14	-12	n/a	NaN	NaN	NaN	NaN	NaN	NaN	NaN	NaN	NaN	NaN	NaN
767.940095475176	2.01616028882563	9	object_onset	1	switch	0.9	71	19	52	n/a	NaN	NaN	NaN	NaN	NaN	NaN	NaN	NaN	NaN	NaN	NaN
775.304934774525	2.0160844491329	3	object_onset	1	stay	0.648999229583518	11	50	-39	n/a	NaN	NaN	NaN	NaN	NaN	NaN	NaN	NaN	NaN	NaN	NaN
781.95315369009	2.01627164869569	12	object_onset	2	switch	0.458911756223351	72	18	54	n/a	NaN	NaN	NaN	NaN	NaN	NaN	NaN	NaN	NaN	NaN	NaN
787.368551932508	2.01618108898401	1	object_onset	2	stay	0.763675323681471	44	1	43	n/a	NaN	NaN	NaN	NaN	NaN	NaN	NaN	NaN	NaN	NaN	NaN
793.533572095679	2.01627484872006	4	object_onset	1	switch	1.08747413762351	14	2	12	n/a	NaN	NaN	NaN	NaN	NaN	NaN	NaN	NaN	NaN	NaN	NaN
798.665717441821	2.01616764906794	9	object_onset	1	stay	0.9	71	19	52	n/a	NaN	NaN	NaN	NaN	NaN	NaN	NaN	NaN	NaN	NaN	NaN
805.8139005173	2.01615580916405	11	object_onset	2	switch	0.814984662432368	100	3	97	n/a	NaN	NaN	NaN	NaN	NaN	NaN	NaN	NaN	NaN	NaN	NaN
813.128712392878	2.0160841292236	9	object_onset	2	stay	0.814984662432368	19	71	-52	n/a	NaN	NaN	NaN	NaN	NaN	NaN	NaN	NaN	NaN	NaN	NaN
818.394086603541	2.01615292881615	12	object_onset	2	stay	0.458911756223351	72	18	54	n/a	NaN	NaN	NaN	NaN	NaN	NaN	NaN	NaN	NaN	NaN	NaN
824.509212782374	2.0161673289258	3	object_onset	2	stay	0.458911756223351	50	11	39	n/a	NaN	NaN	NaN	NaN	NaN	NaN	NaN	NaN	NaN	NaN	NaN
830.507585905492	2.01628316869028	6	object_onset	1	switch	0.458911756223351	44	13	31	n/a	NaN	NaN	NaN	NaN	NaN	NaN	NaN	NaN	NaN	NaN	NaN
837.056061972398	2.01602364936844	11	object_onset	2	switch	0.9	100	3	97	n/a	NaN	NaN	NaN	NaN	NaN	NaN	NaN	NaN	NaN	NaN	NaN
842.837901751278	2.0161574089434	3	object_onset	2	stay	0.524785670536077	50	11	39	n/a	NaN	NaN	NaN	NaN	NaN	NaN	NaN	NaN	NaN	NaN	NaN
849.25294959452	11.4471194613725	3	choice	2	n/a	NaN	NaN	NaN	NaN	d	1	6	0.458911756223351	0.458911756223351	5.74709315020333	37.0335154537144	10.2407625473549	32.5937547140354	860.684149406618	11.4311998120975	1
864.332523201592	2.01615164894611	7	object_onset	1	switch	1.08747413762351	90	2	88	n/a	NaN	NaN	NaN	NaN	NaN	NaN	NaN	NaN	NaN	NaN	NaN
870.980846756836	4.03230969794095	7	choice	1	n/a	NaN	NaN	NaN	NaN	d	2	3	1.08747413762351	1.27914033631967	79.370433738819	85.4771471461812	48.3436681716825	14.272887645719	874.998320323415	4.0174735665787	1
880.161852489458	2.01616636896506	8	object_onset	2	switch	0.524785670536077	16	44	-28	n/a	NaN	NaN	NaN	NaN	NaN	NaN	NaN	NaN	NaN	NaN	NaN
887.810018604854	2.01606972911395	7	object_onset	1	switch	0.524785670536077	90	2	88	n/a	NaN	NaN	NaN	NaN	NaN	NaN	NaN	NaN	NaN	NaN	NaN
894.075018416159	2.01616444881074	9	object_onset	2	switch	0.458911756223351	19	71	-52	n/a	NaN	NaN	NaN	NaN	NaN	NaN	NaN	NaN	NaN	NaN	NaN
898.107333234046	10.3640681009274	9	choice	2	n/a	NaN	NaN	NaN	NaN	d	10	7	0.458911756223351	0.763675323681471	17.1151618366732	31.2285063350093	19.4955359903515	65.9816111558297	908.454590487294	10.3472572532482	1
913.703386169625	2.0160745291505	9	object_onset	2	stay	0	19	71	-52	n/a	NaN	NaN	NaN	NaN	NaN	NaN	NaN	NaN	NaN	NaN	NaN
919.385282460367	2.01619196892716	10	object_onset	1	switch	0.763675323681471	5	50	-45	n/a	NaN	NaN	NaN	NaN	NaN	NaN	NaN	NaN	NaN	NaN	NaN
925.717024223413	2.01619100896642	6	object_onset	2	switch	1.08747413762351	13	44	-31	n/a	NaN	NaN	NaN	NaN	NaN	NaN	NaN	NaN	NaN	NaN	NaN
931.84883453045	2.01615324895829	2	object_onset	1	switch	0.524785670536077	5	16	-11	n/a	NaN	NaN	NaN	NaN	NaN	NaN	NaN	NaN	NaN	NaN	NaN
939.263611973962	2.01615996891633	3	object_onset	1	stay	0.36	11	50	-39	n/a	NaN	NaN	NaN	NaN	NaN	NaN	NaN	NaN	NaN	NaN	NaN
945.711925033247	3.18265628931113	3	choice	1	n/a	NaN	NaN	NaN	NaN	d	1	4	0.458911756223351	0.763675323681471	10.2407625473549	3.02583024744705	5.74709315020333	48.5598131691118	948.884437022032	3.17251198878512	1
952.960181196453	2.01615868904628	9	object_onset	2	switch	0.648999229583518	19	71	-52	n/a	NaN	NaN	NaN	NaN	NaN	NaN	NaN	NaN	NaN	NaN	NaN
957.79228199902	2.01615548878908	7	object_onset	1	switch	0.458911756223351	90	2	88	n/a	NaN	NaN	NaN	NaN	NaN	NaN	NaN	NaN	NaN	NaN	NaN
963.940722993808	2.01616604905576	2	object_onset	1	stay	1.27914033631967	5	16	-11	n/a	NaN	NaN	NaN	NaN	NaN	NaN	NaN	NaN	NaN	NaN	NaN
969.489320340566	8.48123043612577	2	choice	1	n/a	NaN	NaN	NaN	NaN	d	9	11	0.9	0.853814968245462	65.9816111558297	1.88362051778864	2.84227419095423	83.8378807534661	977.965409666533	8.47608932596631	-1
983.135913019069	2.01601660926826	12	object_onset	2	switch	0.814984662432368	72	18	54	n/a	NaN	NaN	NaN	NaN	NaN	NaN	NaN	NaN	NaN	NaN	NaN
990.100789246615	2.01617372897454	11	object_onset	2	stay	0.36	100	3	97	n/a	NaN	NaN	NaN	NaN	NaN	NaN	NaN	NaN	NaN	NaN	NaN
997.065737793921	2.01605788921006	10	object_onset	1	switch	0.524785670536077	5	50	-45	n/a	NaN	NaN	NaN	NaN	NaN	NaN	NaN	NaN	NaN	NaN	NaN
1003.58073616517	2.01619420875795	6	object_onset	1	stay	1.08747413762351	44	13	31	n/a	NaN	NaN	NaN	NaN	NaN	NaN	NaN	NaN	NaN	NaN	NaN
1008.41289968742	2.01612156885676	8	object_onset	1	stay	0.814984662432368	44	16	28	n/a	NaN	NaN	NaN	NaN	NaN	NaN	NaN	NaN	NaN	NaN	NaN
1012.89509172156	5.99845952284522	8	choice	1	n/a	NaN	NaN	NaN	NaN	d	7	5	0.524785670536077	0.853814968245462	46.7766790247836	27.2811430344322	14.272887645719	13.5499782611421	1018.87877463293	5.9836829113774	1
1023.59236334288	2.01618268876337	10	object_onset	1	stay	0.569209978830308	5	50	-45	n/a	NaN	NaN	NaN	NaN	NaN	NaN	NaN	NaN	NaN	NaN	NaN
1028.80774244922	2.79929638537578	10	choice	1	n/a	NaN	NaN	NaN	NaN	d	3	4	0.9	1.53792067415716	6.10671340736224	9.13254365480929	2.1316282072803e-14	48.5598131691118	1031.59327598102	2.78553353180178	1
1034.45646440377	2.01598140923306	1	object_onset	1	stay	1.08747413762351	1	44	-43	n/a	NaN	NaN	NaN	NaN	NaN	NaN	NaN	NaN	NaN	NaN	NaN
1040.55477749486	2.01615996914916	9	object_onset	1	stay	1.08747413762351	71	19	52	n/a	NaN	NaN	NaN	NaN	NaN	NaN	NaN	NaN	NaN	NaN	NaN
1046.45330056967	2.01615228899755	1	object_onset	1	stay	1.08747413762351	1	44	-43	n/a	NaN	NaN	NaN	NaN	NaN	NaN	NaN	NaN	NaN	NaN	NaN
1050.98548290809	5.43197037046775	1	choice	1	n/a	NaN	NaN	NaN	NaN	d	8	10	1.08747413762351	1.27914033631967	4.13404913999263	42.8345172613902	5.74709315020331	28.3236873757602	1056.40546642151	5.41998351342045	1
1059.91653520032	2.01615388900973	6	object_onset	2	switch	0.9	13	44	-31	n/a	NaN	NaN	NaN	NaN	NaN	NaN	NaN	NaN	NaN	NaN	NaN
1067.48122915626	2.01623452873901	6	object_onset	2	stay	0	13	44	-31	n/a	NaN	NaN	NaN	NaN	NaN	NaN	NaN	NaN	NaN	NaN	NaN
1072.76322541479	2.01624252879992	11	object_onset	1	switch	0.9	3	100	-97	n/a	NaN	NaN	NaN	NaN	NaN	NaN	NaN	NaN	NaN	NaN	NaN
1076.94546890492	6.26523789064959	11	choice	1	n/a	NaN	NaN	NaN	NaN	d	3	6	0.524785670536077	0.9	7.99033392515088	40.5840886391862	49.7671002275025	86.800615681217	1083.1976012208	6.25213231588714	1
1088.65933345421	2.01615356886759	5	object_onset	1	stay	1.20747670784989	71	3	68	n/a	NaN	NaN	NaN	NaN	NaN	NaN	NaN	NaN	NaN	NaN	NaN
1096.04079992184	2.0161673289258	11	object_onset	2	switch	1.20747670784989	100	3	97	n/a	NaN	NaN	NaN	NaN	NaN	NaN	NaN	NaN	NaN	NaN	NaN
1101.53940216452	2.01618716889061	5	object_onset	1	switch	1.20747670784989	71	3	68	n/a	NaN	NaN	NaN	NaN	NaN	NaN	NaN	NaN	NaN	NaN	NaN
1106.55482933484	2.01606940920465	10	object_onset	2	switch	1.27914033631967	50	5	45	n/a	NaN	NaN	NaN	NaN	NaN	NaN	NaN	NaN	NaN	NaN	NaN
1111.93679884146	2.01616668887436	7	object_onset	2	stay	1.08747413762351	2	90	-88	n/a	NaN	NaN	NaN	NaN	NaN	NaN	NaN	NaN	NaN	NaN	NaN
1117.16881631594	2.01618044893257	2	object_onset	1	switch	1.27914033631967	5	16	-11	n/a	NaN	NaN	NaN	NaN	NaN	NaN	NaN	NaN	NaN	NaN	NaN
1124.85018588766	2.01615164917894	4	object_onset	2	switch	0.569209978830308	2	14	-12	n/a	NaN	NaN	NaN	NaN	NaN	NaN	NaN	NaN	NaN	NaN	NaN
1130.4153483226	2.0162854087539	12	object_onset	2	stay	1.08747413762351	72	18	54	n/a	NaN	NaN	NaN	NaN	NaN	NaN	NaN	NaN	NaN	NaN	NaN
1136.38059894927	2.01607644930482	10	object_onset	1	switch	0.458911756223351	5	50	-45	n/a	NaN	NaN	NaN	NaN	NaN	NaN	NaN	NaN	NaN	NaN	NaN
