onset	duration	object	trial_type	map	stayswitch	distance	value	counterfactual_value	value_diff	choicetype	object1	object2	chosen_distance	unchosen_distance	chosen_value	unchosen_value	counterfactual_chosen_value	counterfactual_unchosen_value	button	response_time	cr
8.79606074723415	2.01615867344663	11	object_onset	1	n/a	NaN	NaN	NaN	NaN	n/a	NaN	NaN	NaN	NaN	NaN	NaN	NaN	NaN	NaN	NaN	NaN
14.1946560794022	2.01620475319214	3	object_onset	2	switch	0.524785670536077	50	11	39	n/a	NaN	NaN	NaN	NaN	NaN	NaN	NaN	NaN	NaN	NaN	NaN
19.5432611552533	9.84756043902598	3	choice	2	n/a	NaN	NaN	NaN	NaN	d	2	7	0.36	1.08747413762351	34.0707805259635	48.3436681716825	6.10671340736224	79.370433738819	29.3796328266617	9.83637167140841	1
32.689899452962	2.01628347323276	5	object_onset	1	switch	0.814984662432368	71	3	68	n/a	NaN	NaN	NaN	NaN	NaN	NaN	NaN	NaN	NaN	NaN	NaN
37.9053756324574	2.01617019344121	12	object_onset	1	stay	0.9	18	72	-54	n/a	NaN	NaN	NaN	NaN	NaN	NaN	NaN	NaN	NaN	NaN	NaN
45.5700837981422	2.01615227339789	6	object_onset	2	switch	0.648999229583518	13	44	-31	n/a	NaN	NaN	NaN	NaN	NaN	NaN	NaN	NaN	NaN	NaN	NaN
50.9353950659279	2.01616027345881	7	object_onset	1	switch	0.763675323681471	90	2	88	n/a	NaN	NaN	NaN	NaN	NaN	NaN	NaN	NaN	NaN	NaN	NaN
56.9171205586754	31.0922925341874	7	choice	1	n/a	NaN	NaN	NaN	NaN	v	12	2	0.9	1.27914033631967	72.4864622809436	85.4771471461812	70.4357926371693	14.272887645719	87.9903065878898	31.0731860292144	1
92.4582498802338	2.01615931349806	8	object_onset	1	stay	0.524785670536077	44	16	28	n/a	NaN	NaN	NaN	NaN	NaN	NaN	NaN	NaN	NaN	NaN	NaN
99.5398634050507	2.01612699357793	10	object_onset	2	switch	0.569209978830308	50	5	45	n/a	NaN	NaN	NaN	NaN	NaN	NaN	NaN	NaN	NaN	NaN	NaN
106.421391426353	2.01616955338977	5	object_onset	2	stay	1.27914033631967	3	71	-68	n/a	NaN	NaN	NaN	NaN	NaN	NaN	NaN	NaN	NaN	NaN	NaN
112.05352976569	2.01594363409095	8	object_onset	1	switch	0.853814968245462	44	16	28	n/a	NaN	NaN	NaN	NaN	NaN	NaN	NaN	NaN	NaN	NaN	NaN
119.668051515939	2.01604827377014	8	object_onset	2	switch	0	16	44	-28	n/a	NaN	NaN	NaN	NaN	NaN	NaN	NaN	NaN	NaN	NaN	NaN
125.583265840076	2.01615803362802	4	object_onset	1	switch	1.26	14	2	12	n/a	NaN	NaN	NaN	NaN	NaN	NaN	NaN	NaN	NaN	NaN	NaN
131.348435796332	2.01617499347776	5	object_onset	2	switch	0.524785670536077	3	71	-68	n/a	NaN	NaN	NaN	NaN	NaN	NaN	NaN	NaN	NaN	NaN	NaN
136.297275623772	2.01611067354679	1	object_onset	2	stay	1.26	44	1	43	n/a	NaN	NaN	NaN	NaN	NaN	NaN	NaN	NaN	NaN	NaN	NaN
142.029089196119	11.347167640226	1	choice	2	n/a	NaN	NaN	NaN	NaN	v	9	10	1.08747413762351	1.08747413762351	5.74709315020331	25.481413184806	4.13404913999263	70.1156602958224	153.362497515976	11.333408319857	1
156.758701174986	2.01615739334375	8	object_onset	2	stay	1.27914033631967	16	44	-28	n/a	NaN	NaN	NaN	NaN	NaN	NaN	NaN	NaN	NaN	NaN	NaN
162.290634682868	2.01608795369975	8	object_onset	1	switch	0	44	16	28	n/a	NaN	NaN	NaN	NaN	NaN	NaN	NaN	NaN	NaN	NaN	NaN
167.239391630515	10.2307586953975	8	choice	1	n/a	NaN	NaN	NaN	NaN	d	1	12	0.524785670536077	1.27914033631967	25.7097832561599	42.8345172613902	56.1629049914503	28.3236873757602	177.44959614519	10.2102045146748	1
182.30226280936	2.01619067345746	6	object_onset	1	stay	0.814984662432368	44	13	31	n/a	NaN	NaN	NaN	NaN	NaN	NaN	NaN	NaN	NaN	NaN	NaN
188.334101117682	2.01615579356439	8	object_onset	2	switch	0.814984662432368	16	44	-28	n/a	NaN	NaN	NaN	NaN	NaN	NaN	NaN	NaN	NaN	NaN	NaN
196.182081715437	2.01620187354274	4	object_onset	2	stay	1.26	2	14	-12	n/a	NaN	NaN	NaN	NaN	NaN	NaN	NaN	NaN	NaN	NaN	NaN
201.580616887659	8.91452312632464	4	choice	2	n/a	NaN	NaN	NaN	NaN	d	5	8	0.524785670536077	1.26	0.93905438200614	14.4890326431482	56.8490675010205	29.5679244665883	210.471166962991	8.8905500753317	1
214.227526064729	2.01617147331126	10	object_onset	2	stay	1.53792067415716	50	5	45	n/a	NaN	NaN	NaN	NaN	NaN	NaN	NaN	NaN	NaN	NaN	NaN
219.54289411637	26.2600424510892	10	choice	2	n/a	NaN	NaN	NaN	NaN	d	11	5	0.524785670536077	1.27914033631967	49.7671002275026	47.6207587871056	1.88362051778864	65.9816111558298	245.790007324656	26.2471132082865	1
251.218241291353	2.01615835353732	1	object_onset	1	switch	1.08747413762351	1	44	-43	n/a	NaN	NaN	NaN	NaN	NaN	NaN	NaN	NaN	NaN	NaN	NaN
256.350138831418	2.01625659340061	6	object_onset	1	stay	0.9	44	13	31	n/a	NaN	NaN	NaN	NaN	NaN	NaN	NaN	NaN	NaN	NaN	NaN
261.432324834866	2.01616379339248	3	object_onset	2	switch	0.458911756223351	50	11	39	n/a	NaN	NaN	NaN	NaN	NaN	NaN	NaN	NaN	NaN	NaN	NaN
266.614326230716	2.0161881132517	4	object_onset	1	switch	0.763675323681471	14	2	12	n/a	NaN	NaN	NaN	NaN	NaN	NaN	NaN	NaN	NaN	NaN	NaN
271.563081898261	2.01614715345204	12	object_onset	2	switch	1.08747413762351	72	18	54	n/a	NaN	NaN	NaN	NaN	NaN	NaN	NaN	NaN	NaN	NaN	NaN
276.911730494117	2.01623643329367	5	object_onset	1	switch	0.9	71	3	68	n/a	NaN	NaN	NaN	NaN	NaN	NaN	NaN	NaN	NaN	NaN	NaN
282.343684770167	50.4872645165306	5	choice	1	n/a	NaN	NaN	NaN	NaN	d	3	12	0.814984662432368	0.9	59.8748977484675	52.9909262905921	47.6207587871056	69.7128832525924	332.796776585281	50.453091815114	1
336.530051273294	2.01616315357387	3	object_onset	1	stay	0.814984662432368	11	50	-39	n/a	NaN	NaN	NaN	NaN	NaN	NaN	NaN	NaN	NaN	NaN	NaN
343.244992894353	2.01610395358875	4	object_onset	2	switch	0.763675323681471	2	14	-12	n/a	NaN	NaN	NaN	NaN	NaN	NaN	NaN	NaN	NaN	NaN	NaN
348.876816674601	2.01627803314477	2	object_onset	1	switch	0.569209978830308	5	16	-11	n/a	NaN	NaN	NaN	NaN	NaN	NaN	NaN	NaN	NaN	NaN	NaN
356.491568184225	2.01624603313394	9	object_onset	2	switch	0.9	19	71	-52	n/a	NaN	NaN	NaN	NaN	NaN	NaN	NaN	NaN	NaN	NaN	NaN
363.906446029432	2.0161525933072	1	object_onset	1	switch	1.08747413762351	1	44	-43	n/a	NaN	NaN	NaN	NaN	NaN	NaN	NaN	NaN	NaN	NaN	NaN
369.6717135855	2.01616859342903	10	object_onset	2	switch	1.08747413762351	50	5	45	n/a	NaN	NaN	NaN	NaN	NaN	NaN	NaN	NaN	NaN	NaN	NaN
375.320230117766	2.0161977133248	6	object_onset	2	stay	1.08747413762351	13	44	-31	n/a	NaN	NaN	NaN	NaN	NaN	NaN	NaN	NaN	NaN	NaN	NaN
382.101871066494	2.01607131375931	2	object_onset	1	switch	0.524785670536077	5	16	-11	n/a	NaN	NaN	NaN	NaN	NaN	NaN	NaN	NaN	NaN	NaN	NaN
387.517181550385	2.01613531354815	1	object_onset	2	switch	0.524785670536077	44	1	43	n/a	NaN	NaN	NaN	NaN	NaN	NaN	NaN	NaN	NaN	NaN	NaN
394.665404483676	2.01613275334239	9	object_onset	2	stay	1.08747413762351	19	71	-52	n/a	NaN	NaN	NaN	NaN	NaN	NaN	NaN	NaN	NaN	NaN	NaN
400.51390251983	2.01616251352243	8	object_onset	2	stay	0.36	16	44	-28	n/a	NaN	NaN	NaN	NaN	NaN	NaN	NaN	NaN	NaN	NaN	NaN
405.82919601188	2.01616379339248	1	object_onset	2	stay	1.27914033631967	44	1	43	n/a	NaN	NaN	NaN	NaN	NaN	NaN	NaN	NaN	NaN	NaN	NaN
411.761053808033	2.01613531354815	12	object_onset	2	stay	0.763675323681471	72	18	54	n/a	NaN	NaN	NaN	NaN	NaN	NaN	NaN	NaN	NaN	NaN	NaN
417.043065795908	2.01604859367944	10	object_onset	2	stay	0.458911756223351	50	5	45	n/a	NaN	NaN	NaN	NaN	NaN	NaN	NaN	NaN	NaN	NaN	NaN
423.941214889288	2.01627355301753	6	object_onset	1	switch	1.08747413762351	44	13	31	n/a	NaN	NaN	NaN	NaN	NaN	NaN	NaN	NaN	NaN	NaN	NaN
430.456359005533	2.01616059360094	4	object_onset	2	switch	0.458911756223351	2	14	-12	n/a	NaN	NaN	NaN	NaN	NaN	NaN	NaN	NaN	NaN	NaN	NaN
435.42174502532	2.01607227372006	7	object_onset	2	stay	1.08747413762351	2	90	-88	n/a	NaN	NaN	NaN	NaN	NaN	NaN	NaN	NaN	NaN	NaN	NaN
441.986826917855	2.01608667359687	2	object_onset	2	stay	1.27914033631967	16	5	11	n/a	NaN	NaN	NaN	NaN	NaN	NaN	NaN	NaN	NaN	NaN	NaN
448.235203482443	2.01615515351295	3	object_onset	1	switch	0.36	11	50	-39	n/a	NaN	NaN	NaN	NaN	NaN	NaN	NaN	NaN	NaN	NaN	NaN
454.333659838885	2.01616827351972	2	object_onset	2	switch	0.36	16	5	11	n/a	NaN	NaN	NaN	NaN	NaN	NaN	NaN	NaN	NaN	NaN	NaN
460.28215630725	2.01617051358335	10	object_onset	1	switch	1.26	5	50	-45	n/a	NaN	NaN	NaN	NaN	NaN	NaN	NaN	NaN	NaN	NaN	NaN
465.947299671592	2.0162325934507	10	object_onset	1	stay	0	5	50	-45	n/a	NaN	NaN	NaN	NaN	NaN	NaN	NaN	NaN	NaN	NaN	NaN
471.229690858396	29.7921906784177	10	choice	1	n/a	NaN	NaN	NaN	NaN	v	7	4	1.53792067415716	1.08747413762351	9.13254365480929	85.4771471461812	48.5598131691118	48.3436681716825	500.999352641869	29.7696617834736	1
505.037489491981	2.01616923348047	1	object_onset	2	switch	1.08747413762351	44	1	43	n/a	NaN	NaN	NaN	NaN	NaN	NaN	NaN	NaN	NaN	NaN	NaN
511.002674552146	2.01619963347912	3	object_onset	1	switch	0.458911756223351	11	50	-39	n/a	NaN	NaN	NaN	NaN	NaN	NaN	NaN	NaN	NaN	NaN	NaN
518.584089197684	2.01619099336676	3	object_onset	1	stay	0	11	50	-39	n/a	NaN	NaN	NaN	NaN	NaN	NaN	NaN	NaN	NaN	NaN	NaN
526.215517459204	2.0161817134358	9	object_onset	2	switch	0.648999229583518	19	71	-52	n/a	NaN	NaN	NaN	NaN	NaN	NaN	NaN	NaN	NaN	NaN	NaN
532.11404255149	2.01615515351295	7	object_onset	1	switch	0.458911756223351	90	2	88	n/a	NaN	NaN	NaN	NaN	NaN	NaN	NaN	NaN	NaN	NaN	NaN
538.745674012462	2.01616507326253	1	object_onset	2	switch	1.53792067415716	44	1	43	n/a	NaN	NaN	NaN	NaN	NaN	NaN	NaN	NaN	NaN	NaN	NaN
545.910564737394	2.01615771348588	10	object_onset	1	switch	1.08747413762351	5	50	-45	n/a	NaN	NaN	NaN	NaN	NaN	NaN	NaN	NaN	NaN	NaN	NaN
553.225351990899	2.01619387348182	5	object_onset	2	switch	1.27914033631967	3	71	-68	n/a	NaN	NaN	NaN	NaN	NaN	NaN	NaN	NaN	NaN	NaN	NaN
560.256947419839	2.01614811364561	7	object_onset	1	switch	0.569209978830308	90	2	88	n/a	NaN	NaN	NaN	NaN	NaN	NaN	NaN	NaN	NaN	NaN	NaN
565.489008831559	2.01600539381616	9	object_onset	2	switch	0.458911756223351	19	71	-52	n/a	NaN	NaN	NaN	NaN	NaN	NaN	NaN	NaN	NaN	NaN	NaN
570.404353075428	2.01619931333698	3	object_onset	1	switch	0.648999229583518	11	50	-39	n/a	NaN	NaN	NaN	NaN	NaN	NaN	NaN	NaN	NaN	NaN	NaN
575.986207079608	15.4795106190722	3	choice	1	n/a	NaN	NaN	NaN	NaN	d	4	9	0.648999229583518	0.763675323681471	59.8748977484675	3.02583024744705	31.2285063350093	48.5598131691118	591.445909115719	15.4597020361107	1
594.464937860845	2.01619547349401	10	object_onset	1	stay	0.9	5	50	-45	n/a	NaN	NaN	NaN	NaN	NaN	NaN	NaN	NaN	NaN	NaN	NaN
600.546772185247	2.01614715345204	6	object_onset	1	stay	1.08747413762351	44	13	31	n/a	NaN	NaN	NaN	NaN	NaN	NaN	NaN	NaN	NaN	NaN	NaN
605.22889310075	22.5610188641585	6	choice	1	n/a	NaN	NaN	NaN	NaN	d	10	11	0.9	1.08747413762351	40.5840886391862	38.7004681213976	86.800615681217	37.0335154537144	627.758846454555	22.5299533538055	1
630.989103391301	2.01616379339248	9	object_onset	2	switch	0.458911756223351	19	71	-52	n/a	NaN	NaN	NaN	NaN	NaN	NaN	NaN	NaN	NaN	NaN	NaN
635.821097155102	15.4795454989653	9	choice	2	n/a	NaN	NaN	NaN	NaN	v	11	1	1.08747413762351	0.814984662432368	25.481413184806	80.9956065625119	70.1156602958224	67.8652316736184	651.28129070974	15.460193554638	1
654.266422912711	2.01619387324899	8	object_onset	1	switch	0.36	44	16	28	n/a	NaN	NaN	NaN	NaN	NaN	NaN	NaN	NaN	NaN	NaN	NaN
660.081762644462	2.01613403344527	1	object_onset	2	switch	1.27914033631967	44	1	43	n/a	NaN	NaN	NaN	NaN	NaN	NaN	NaN	NaN	NaN	NaN	NaN
665.946904152865	2.01620539324358	3	object_onset	2	stay	0.458911756223351	50	11	39	n/a	NaN	NaN	NaN	NaN	NaN	NaN	NaN	NaN	NaN	NaN	NaN
671.428759405157	2.01631547301076	11	object_onset	2	stay	0.524785670536077	100	3	97	n/a	NaN	NaN	NaN	NaN	NaN	NaN	NaN	NaN	NaN	NaN	NaN
677.643961025402	2.01616763346829	10	object_onset	1	switch	0.524785670536077	5	50	-45	n/a	NaN	NaN	NaN	NaN	NaN	NaN	NaN	NaN	NaN	NaN	NaN
682.992844727822	2.01595524675213	10	object_onset	2	switch	0	50	5	45	n/a	NaN	NaN	NaN	NaN	NaN	NaN	NaN	NaN	NaN	NaN	NaN
688.974436553661	2.01615419331938	12	object_onset	2	stay	0.458911756223351	72	18	54	n/a	NaN	NaN	NaN	NaN	NaN	NaN	NaN	NaN	NaN	NaN	NaN
694.67303294153	2.01616795361042	3	object_onset	2	stay	0.458911756223351	50	11	39	n/a	NaN	NaN	NaN	NaN	NaN	NaN	NaN	NaN	NaN	NaN	NaN
700.804828081978	2.01603739382699	4	object_onset	2	stay	0.763675323681471	2	14	-12	n/a	NaN	NaN	NaN	NaN	NaN	NaN	NaN	NaN	NaN	NaN	NaN
708.369579095626	2.01616123341955	6	object_onset	2	stay	0.458911756223351	13	44	-31	n/a	NaN	NaN	NaN	NaN	NaN	NaN	NaN	NaN	NaN	NaN	NaN
715.334494396579	2.01615355350077	10	object_onset	1	switch	1.08747413762351	5	50	-45	n/a	NaN	NaN	NaN	NaN	NaN	NaN	NaN	NaN	NaN	NaN	NaN
722.066101889592	2.01614395342767	1	object_onset	1	stay	1.08747413762351	1	44	-43	n/a	NaN	NaN	NaN	NaN	NaN	NaN	NaN	NaN	NaN	NaN	NaN
728.048043061513	73.4646857017651	1	choice	1	n/a	NaN	NaN	NaN	NaN	d	5	7	1.26	1.53792067415716	70.1156602958224	89.6111962861739	41.8736656369023	42.5965750214792	801.495902891736	73.447859830223	1
805.511696766131	2.01621659332886	9	object_onset	1	stay	1.08747413762351	71	19	52	n/a	NaN	NaN	NaN	NaN	NaN	NaN	NaN	NaN	NaN	NaN	NaN
810.976986306254	2.0161916334182	2	object_onset	1	stay	0.9	5	16	-11	n/a	NaN	NaN	NaN	NaN	NaN	NaN	NaN	NaN	NaN	NaN	NaN
818.075204583351	2.01616539340466	11	object_onset	1	stay	0.853814968245462	3	100	-97	n/a	NaN	NaN	NaN	NaN	NaN	NaN	NaN	NaN	NaN	NaN	NaN
823.990384027595	2.01615515351295	1	object_onset	1	stay	0.569209978830308	1	44	-43	n/a	NaN	NaN	NaN	NaN	NaN	NaN	NaN	NaN	NaN	NaN	NaN
831.08847942506	2.01630075299181	5	object_onset	1	stay	1.26	71	3	68	n/a	NaN	NaN	NaN	NaN	NaN	NaN	NaN	NaN	NaN	NaN	NaN
837.820221957751	2.01618267339654	12	object_onset	2	switch	0.9	72	18	54	n/a	NaN	NaN	NaN	NaN	NaN	NaN	NaN	NaN	NaN	NaN	NaN
843.218840009766	2.01617883332074	4	object_onset	1	switch	1.08747413762351	14	2	12	n/a	NaN	NaN	NaN	NaN	NaN	NaN	NaN	NaN	NaN	NaN	NaN
850.400419326732	2.0161308334209	8	object_onset	1	stay	1.26	44	16	28	n/a	NaN	NaN	NaN	NaN	NaN	NaN	NaN	NaN	NaN	NaN	NaN
856.182316594757	2.016108433716	7	object_onset	1	stay	0.524785670536077	90	2	88	n/a	NaN	NaN	NaN	NaN	NaN	NaN	NaN	NaN	NaN	NaN	NaN
862.34740603948	2.01615547342226	12	object_onset	2	switch	0.9	72	18	54	n/a	NaN	NaN	NaN	NaN	NaN	NaN	NaN	NaN	NaN	NaN	NaN
867.246168571059	2.01613211352378	5	object_onset	2	stay	0.9	3	71	-68	n/a	NaN	NaN	NaN	NaN	NaN	NaN	NaN	NaN	NaN	NaN	NaN
872.211469150847	17.8122511007823	5	choice	2	n/a	NaN	NaN	NaN	NaN	v	1	10	1.26	1.27914033631967	41.8736656369023	47.6207587871056	70.1156602958224	65.9816111558298	890.011347807245	17.7998786563985	1
894.689215935068	2.0161561134737	2	object_onset	2	stay	0.853814968245462	16	5	11	n/a	NaN	NaN	NaN	NaN	NaN	NaN	NaN	NaN	NaN	NaN	NaN
900.787562851794	2.01627643313259	7	object_onset	2	stay	1.27914033631967	2	90	-88	n/a	NaN	NaN	NaN	NaN	NaN	NaN	NaN	NaN	NaN	NaN	NaN
907.469354488188	2.01605211384594	12	object_onset	2	stay	0.9	72	18	54	n/a	NaN	NaN	NaN	NaN	NaN	NaN	NaN	NaN	NaN	NaN	NaN
913.101234908449	57.9020927618258	12	choice	2	n/a	NaN	NaN	NaN	NaN	d	8	6	0.524785670536077	0.648999229583518	56.1629049914503	59.1256399192012	25.7097832561599	25.70978325616	970.98797155451	57.8867366460618	1
974.552427208982	2.0161247535143	3	object_onset	1	switch	0.458911756223351	11	50	-39	n/a	NaN	NaN	NaN	NaN	NaN	NaN	NaN	NaN	NaN	NaN	NaN
979.68444122863	2.01619451353326	5	object_onset	2	switch	0.814984662432368	3	71	-68	n/a	NaN	NaN	NaN	NaN	NaN	NaN	NaN	NaN	NaN	NaN	NaN
987.41585064237	2.01615835330449	6	object_onset	2	stay	0.36	13	44	-31	n/a	NaN	NaN	NaN	NaN	NaN	NaN	NaN	NaN	NaN	NaN	NaN
992.564554533921	22.2943741923664	6	choice	2	n/a	NaN	NaN	NaN	NaN	v	10	1	0.9	1.08747413762351	31.2864223035111	37.0335154537144	42.8345172613902	38.7004681213976	1014.84371629008	22.2791617561597	1
1018.25807413668	2.01613019360229	11	object_onset	2	stay	0.9	100	3	97	n/a	NaN	NaN	NaN	NaN	NaN	NaN	NaN	NaN	NaN	NaN	NaN
1022.39021903602	8.91455768607557	11	choice	2	n/a	NaN	NaN	NaN	NaN	v	4	8	0.853814968245462	1.27914033631967	83.8378807534661	98.3269133966143	40.5840886391862	11.0161641725979	1031.29895017901	8.90873114299029	1
1036.82002067822	2.01620443328284	4	object_onset	1	switch	1.27914033631967	14	2	12	n/a	NaN	NaN	NaN	NaN	NaN	NaN	NaN	NaN	NaN	NaN	NaN
1042.06873420207	24.1105539214332	4	choice	1	n/a	NaN	NaN	NaN	NaN	v	6	3	0.458911756223351	0.763675323681471	29.5679244665883	3.02583024744705	11.5262977153973	48.5598131691118	1066.16851503472	24.0997808326501	-1
1069.69509271812	2.01616059336811	6	object_onset	1	stay	0.458911756223351	44	13	31	n/a	NaN	NaN	NaN	NaN	NaN	NaN	NaN	NaN	NaN	NaN	NaN
1075.54359043436	2.01614811341278	7	object_onset	1	stay	0.763675323681471	90	2	88	n/a	NaN	NaN	NaN	NaN	NaN	NaN	NaN	NaN	NaN	NaN	NaN
1081.74205642287	2.01615771348588	4	object_onset	2	switch	1.08747413762351	2	14	-12	n/a	NaN	NaN	NaN	NaN	NaN	NaN	NaN	NaN	NaN	NaN	NaN
1087.52391337114	2.01613755337894	11	object_onset	2	stay	1.27914033631967	100	3	97	n/a	NaN	NaN	NaN	NaN	NaN	NaN	NaN	NaN	NaN	NaN	NaN
1093.15580659127	2.01619547326118	12	object_onset	1	switch	0.36	18	72	-54	n/a	NaN	NaN	NaN	NaN	NaN	NaN	NaN	NaN	NaN	NaN	NaN
1100.75390438875	2.01618491322733	9	object_onset	1	stay	0.458911756223351	71	19	52	n/a	NaN	NaN	NaN	NaN	NaN	NaN	NaN	NaN	NaN	NaN	NaN
1105.3694213361	43.7056494876742	9	choice	1	n/a	NaN	NaN	NaN	NaN	v	3	6	0.458911756223351	0.648999229583518	27.2811430344321	59.8748977484675	5.80500911870512	31.2285063350093	1149.06610476947	43.6966834333725	1
1154.22376703541	2.01611771364696	11	object_onset	2	switch	0.814984662432368	100	3	97	n/a	NaN	NaN	NaN	NaN	NaN	NaN	NaN	NaN	NaN	NaN	NaN
1160.35553657589	2.01615419355221	6	object_onset	2	stay	0.9	13	44	-31	n/a	NaN	NaN	NaN	NaN	NaN	NaN	NaN	NaN	NaN	NaN	NaN
1168.1702212696	2.01618747343309	11	object_onset	1	switch	0.9	3	100	-97	n/a	NaN	NaN	NaN	NaN	NaN	NaN	NaN	NaN	NaN	NaN	NaN
1174.01866202615	2.01623771316372	7	object_onset	2	switch	1.26	2	90	-88	n/a	NaN	NaN	NaN	NaN	NaN	NaN	NaN	NaN	NaN	NaN	NaN
1181.63351593539	2.01616411353461	11	object_onset	1	switch	1.26	3	100	-97	n/a	NaN	NaN	NaN	NaN	NaN	NaN	NaN	NaN	NaN	NaN	NaN
1187.26541235554	2.01613979344256	9	object_onset	1	stay	0.814984662432368	71	19	52	n/a	NaN	NaN	NaN	NaN	NaN	NaN	NaN	NaN	NaN	NaN	NaN
1193.5804252082	2.01620699348859	1	object_onset	1	stay	1.08747413762351	1	44	-43	n/a	NaN	NaN	NaN	NaN	NaN	NaN	NaN	NaN	NaN	NaN	NaN
1198.89579773997	2.01616539340466	2	object_onset	2	switch	0.524785670536077	16	5	11	n/a	NaN	NaN	NaN	NaN	NaN	NaN	NaN	NaN	NaN	NaN	NaN
1203.77790687955	2.01616347348318	9	object_onset	1	switch	0.9	71	19	52	n/a	NaN	NaN	NaN	NaN	NaN	NaN	NaN	NaN	NaN	NaN	NaN
1211.49265842116	2.0161820333451	7	object_onset	1	stay	0.458911756223351	90	2	88	n/a	NaN	NaN	NaN	NaN	NaN	NaN	NaN	NaN	NaN	NaN	NaN
1216.60803536884	2.01615131343715	5	object_onset	2	switch	0.569209978830308	3	71	-68	n/a	NaN	NaN	NaN	NaN	NaN	NaN	NaN	NaN	NaN	NaN	NaN
1222.48988178908	2.01613243343309	3	object_onset	2	stay	0.814984662432368	50	11	39	n/a	NaN	NaN	NaN	NaN	NaN	NaN	NaN	NaN	NaN	NaN	NaN
1227.97181928111	2.01614843355492	2	object_onset	2	stay	0.36	16	5	11	n/a	NaN	NaN	NaN	NaN	NaN	NaN	NaN	NaN	NaN	NaN	NaN
1233.53709637304	2.01616347348318	1	object_onset	1	switch	0.524785670536077	1	44	-43	n/a	NaN	NaN	NaN	NaN	NaN	NaN	NaN	NaN	NaN	NaN	NaN
1239.28564237733	2.01616187347099	11	object_onset	1	stay	0.569209978830308	3	100	-97	n/a	NaN	NaN	NaN	NaN	NaN	NaN	NaN	NaN	NaN	NaN	NaN
1247.03365302295	2.01619355333969	4	object_onset	1	stay	1.27914033631967	14	2	12	n/a	NaN	NaN	NaN	NaN	NaN	NaN	NaN	NaN	NaN	NaN	NaN
1252.78220478725	2.01610331353731	7	object_onset	2	switch	1.08747413762351	2	90	-88	n/a	NaN	NaN	NaN	NaN	NaN	NaN	NaN	NaN	NaN	NaN	NaN
1258.21440002252	10.480495256139	7	choice	2	n/a	NaN	NaN	NaN	NaN	d	12	9	0.458911756223351	0.9	17.1151618366732	70.4357926371693	19.4955359903515	72.4864622809436	1268.68358875113	10.4691887286026	1
1274.19350824272	2.01615867344663	12	object_onset	1	switch	0.9	18	72	-54	n/a	NaN	NaN	NaN	NaN	NaN	NaN	NaN	NaN	NaN	NaN	NaN
1279.75873029488	2.01619931333698	11	object_onset	1	stay	0.36	3	100	-97	n/a	NaN	NaN	NaN	NaN	NaN	NaN	NaN	NaN	NaN	NaN	NaN
1285.40739754657	30.542218278395	11	choice	1	n/a	NaN	NaN	NaN	NaN	v	9	2	0.853814968245462	0.814984662432368	1.88362051778864	67.8652316736184	83.8378807534661	80.9956065625119	1315.94232592592	30.5349283793475	1
1321.51487147715	2.01618299330585	2	object_onset	1	stay	0.853814968245462	5	16	-11	n/a	NaN	NaN	NaN	NaN	NaN	NaN	NaN	NaN	NaN	NaN	NaN
1327.69666103343	2.01616635359824	8	object_onset	1	stay	1.20747670784989	44	16	28	n/a	NaN	NaN	NaN	NaN	NaN	NaN	NaN	NaN	NaN	NaN	NaN
1332.99530913355	2.01619259314612	7	object_onset	2	switch	0.524785670536077	2	90	-88	n/a	NaN	NaN	NaN	NaN	NaN	NaN	NaN	NaN	NaN	NaN	NaN
1338.81056758552	2.01609179354273	2	object_onset	1	switch	1.27914033631967	5	16	-11	n/a	NaN	NaN	NaN	NaN	NaN	NaN	NaN	NaN	NaN	NaN	NaN
1343.30936134886	119.703173334943	2	choice	1	n/a	NaN	NaN	NaN	NaN	d	8	4	1.20747670784989	0.569209978830308	38.7004681213976	9.13254365480929	0	14.4890326431482	1463.00411806814	119.694756719284	-1
1466.42839300609	2.01610715361312	8	object_onset	2	switch	1.20747670784989	16	44	-28	n/a	NaN	NaN	NaN	NaN	NaN	NaN	NaN	NaN	NaN	NaN	NaN
1472.02693208237	13.8631245542783	8	choice	2	n/a	NaN	NaN	NaN	NaN	v	2	3	1.20747670784989	0.9	0	34.0707805259635	38.7004681213976	32.5937547140353	1485.88124418189	13.8543120995164	1
1490.05568431946	2.01615419355221	9	object_onset	2	stay	0.36	19	71	-52	n/a	NaN	NaN	NaN	NaN	NaN	NaN	NaN	NaN	NaN	NaN	NaN
1494.97113896301	2.01615707343444	11	object_onset	2	stay	0.814984662432368	100	3	97	n/a	NaN	NaN	NaN	NaN	NaN	NaN	NaN	NaN	NaN	NaN	NaN
1500.58639063104	2.01613563369028	10	object_onset	2	stay	0.524785670536077	50	5	45	n/a	NaN	NaN	NaN	NaN	NaN	NaN	NaN	NaN	NaN	NaN	NaN
1505.75172103499	2.016156433383	8	object_onset	2	stay	0.569209978830308	16	44	-28	n/a	NaN	NaN	NaN	NaN	NaN	NaN	NaN	NaN	NaN	NaN	NaN
1511.00042879861	2.01616315357387	2	object_onset	2	stay	1.20747670784989	16	5	11	n/a	NaN	NaN	NaN	NaN	NaN	NaN	NaN	NaN	NaN	NaN	NaN
1516.09914115444	23.3607538409997	2	choice	2	n/a	NaN	NaN	NaN	NaN	d	7	11	0.853814968245462	1.27914033631967	83.8378807534661	14.272887645719	1.88362051778864	85.4771471461812	1539.44663007371	23.347488919273	1
1543.35889752628	2.01616539340466	6	object_onset	1	switch	0.524785670536077	44	13	31	n/a	NaN	NaN	NaN	NaN	NaN	NaN	NaN	NaN	NaN	NaN	NaN
1548.27432464994	2.01619131327607	9	object_onset	1	stay	0.458911756223351	71	19	52	n/a	NaN	NaN	NaN	NaN	NaN	NaN	NaN	NaN	NaN	NaN	NaN
1553.75630662171	2.01615867344663	9	object_onset	1	stay	0	71	19	52	n/a	NaN	NaN	NaN	NaN	NaN	NaN	NaN	NaN	NaN	NaN	NaN
1559.58802934643	2.01627387315966	12	object_onset	1	stay	0.458911756223351	18	72	-54	n/a	NaN	NaN	NaN	NaN	NaN	NaN	NaN	NaN	NaN	NaN	NaN
1565.73662731843	2.01615707343444	4	object_onset	1	stay	1.08747413762351	14	2	12	n/a	NaN	NaN	NaN	NaN	NaN	NaN	NaN	NaN	NaN	NaN	NaN
1570.60206482606	2.01603835378774	5	object_onset	1	stay	0.524785670536077	71	3	68	n/a	NaN	NaN	NaN	NaN	NaN	NaN	NaN	NaN	NaN	NaN	NaN
1575.78406878188	2.01620251336135	3	object_onset	2	switch	0.814984662432368	50	11	39	n/a	NaN	NaN	NaN	NaN	NaN	NaN	NaN	NaN	NaN	NaN	NaN
1581.28267534589	2.01615035347641	2	object_onset	1	switch	0.36	5	16	-11	n/a	NaN	NaN	NaN	NaN	NaN	NaN	NaN	NaN	NaN	NaN	NaN
1587.28118447005	2.01616283343174	5	object_onset	1	stay	0.853814968245462	71	3	68	n/a	NaN	NaN	NaN	NaN	NaN	NaN	NaN	NaN	NaN	NaN	NaN
1592.21320258593	2.01625435310416	11	object_onset	2	switch	1.20747670784989	100	3	97	n/a	NaN	NaN	NaN	NaN	NaN	NaN	NaN	NaN	NaN	NaN	NaN
1597.52856551763	2.01616891357116	7	object_onset	2	stay	1.26	2	90	-88	n/a	NaN	NaN	NaN	NaN	NaN	NaN	NaN	NaN	NaN	NaN	NaN
1602.64396390528	2.01617659348994	5	object_onset	1	switch	0.569209978830308	71	3	68	n/a	NaN	NaN	NaN	NaN	NaN	NaN	NaN	NaN	NaN	NaN	NaN
1609.27561520622	2.01615227339789	6	object_onset	2	switch	0.36	13	44	-31	n/a	NaN	NaN	NaN	NaN	NaN	NaN	NaN	NaN	NaN	NaN	NaN
1614.74092522613	2.0161561134737	12	object_onset	1	switch	0.648999229583518	18	72	-54	n/a	NaN	NaN	NaN	NaN	NaN	NaN	NaN	NaN	NaN	NaN	NaN
1619.2896615658	172.489937788807	12	choice	1	n/a	NaN	NaN	NaN	NaN	v	6	5	0.648999229583518	0.9	25.70978325616	52.9909262905921	59.1256399192012	69.7128832525924	1791.76196260541	172.472301039612	1
1796.11181247793	2.01604315382428	4	object_onset	2	switch	1.08747413762351	2	14	-12	n/a	NaN	NaN	NaN	NaN	NaN	NaN	NaN	NaN	NaN	NaN	NaN
1801.54376003379	2.01619835337624	12	object_onset	1	switch	1.08747413762351	18	72	-54	n/a	NaN	NaN	NaN	NaN	NaN	NaN	NaN	NaN	NaN	NaN	NaN
