onset	duration	object	trial_type	map	stayswitch	distance	value	counterfactual_value	value_diff	choicetype	object1	object2	chosen_distance	unchosen_distance	chosen_value	unchosen_value	counterfactual_chosen_value	counterfactual_unchosen_value	button	response_time	cr
8.78643977013417	2.01615452882834	3	object_onset	2	n/a	NaN	NaN	NaN	NaN	n/a	NaN	NaN	NaN	NaN	NaN	NaN	NaN	NaN	NaN	NaN	NaN
14.2517220766749	2.01615964900702	6	object_onset	1	switch	0.458911756223351	44	13	31	n/a	NaN	NaN	NaN	NaN	NaN	NaN	NaN	NaN	NaN	NaN	NaN
21.4498852163088	2.01621852885	8	object_onset	1	stay	0.814984662432368	44	16	28	n/a	NaN	NaN	NaN	NaN	NaN	NaN	NaN	NaN	NaN	NaN	NaN
28.2148763875011	2.01611452898942	5	object_onset	2	switch	0.853814968245462	3	71	-68	n/a	NaN	NaN	NaN	NaN	NaN	NaN	NaN	NaN	NaN	NaN	NaN
35.9795427592471	2.01616764906794	12	object_onset	2	stay	0.9	72	18	54	n/a	NaN	NaN	NaN	NaN	NaN	NaN	NaN	NaN	NaN	NaN	NaN
43.3776959148236	2.01614716905169	7	object_onset	2	stay	0.9	2	90	-88	n/a	NaN	NaN	NaN	NaN	NaN	NaN	NaN	NaN	NaN	NaN	NaN
48.8763323975727	2.01615836890414	5	object_onset	2	stay	0.569209978830308	3	71	-68	n/a	NaN	NaN	NaN	NaN	NaN	NaN	NaN	NaN	NaN	NaN	NaN
56.3743474413641	2.01625820877962	1	object_onset	1	switch	1.26	1	44	-43	n/a	NaN	NaN	NaN	NaN	NaN	NaN	NaN	NaN	NaN	NaN	NaN
62.3395699081011	2.01619356893934	1	object_onset	2	switch	0	44	1	43	n/a	NaN	NaN	NaN	NaN	NaN	NaN	NaN	NaN	NaN	NaN	NaN
67.5215970785357	2.01619708887301	11	object_onset	2	stay	0.569209978830308	100	3	97	n/a	NaN	NaN	NaN	NaN	NaN	NaN	NaN	NaN	NaN	NaN	NaN
74.6031918020453	2.01614940888248	6	object_onset	1	switch	0.9	44	13	31	n/a	NaN	NaN	NaN	NaN	NaN	NaN	NaN	NaN	NaN	NaN	NaN
80.6516259489581	2.0161577288527	1	object_onset	2	switch	0.9	44	1	43	n/a	NaN	NaN	NaN	NaN	NaN	NaN	NaN	NaN	NaN	NaN	NaN
86.1169463354163	2.01619388908148	9	object_onset	1	switch	1.08747413762351	71	19	52	n/a	NaN	NaN	NaN	NaN	NaN	NaN	NaN	NaN	NaN	NaN	NaN
92.2819434588309	2.01628220872954	12	object_onset	2	switch	0.458911756223351	72	18	54	n/a	NaN	NaN	NaN	NaN	NaN	NaN	NaN	NaN	NaN	NaN	NaN
98.5303743416443	2.01624572882429	1	object_onset	2	stay	0.763675323681471	44	1	43	n/a	NaN	NaN	NaN	NaN	NaN	NaN	NaN	NaN	NaN	NaN	NaN
103.462542152032	2.01615932886489	7	object_onset	2	stay	1.53792067415716	2	90	-88	n/a	NaN	NaN	NaN	NaN	NaN	NaN	NaN	NaN	NaN	NaN	NaN
108.078092330135	6.83160032331944	7	choice	2	n/a	NaN	NaN	NaN	NaN	d	12	4	0.9	1.08747413762351	70.4357926371693	0.216144997429269	72.4864622809436	76.3446034913719	114.896581318695	6.81848898855969	1
119.875114479801	2.01618204894476	4	object_onset	2	stay	1.08747413762351	2	14	-12	n/a	NaN	NaN	NaN	NaN	NaN	NaN	NaN	NaN	NaN	NaN	NaN
125.123761042487	2.01618972886354	4	object_onset	2	stay	0	2	14	-12	n/a	NaN	NaN	NaN	NaN	NaN	NaN	NaN	NaN	NaN	NaN	NaN
131.638823093614	22.0277538665105	4	choice	2	n/a	NaN	NaN	NaN	NaN	d	3	5	0.524785670536077	0.763675323681471	0.93905438200614	48.5598131691118	56.8490675010205	3.02583024744705	153.652194587747	22.013371494133	1
158.332090882352	2.01617180905305	9	object_onset	2	stay	0.9	19	71	-52	n/a	NaN	NaN	NaN	NaN	NaN	NaN	NaN	NaN	NaN	NaN	NaN
163.630751429126	2.01613948890008	3	object_onset	1	switch	0.648999229583518	11	50	-39	n/a	NaN	NaN	NaN	NaN	NaN	NaN	NaN	NaN	NaN	NaN	NaN
170.995572808664	2.01615068898536	1	object_onset	2	switch	0.458911756223351	44	1	43	n/a	NaN	NaN	NaN	NaN	NaN	NaN	NaN	NaN	NaN	NaN	NaN
177.41061841161	2.0161570890341	2	object_onset	2	stay	0.524785670536077	16	5	11	n/a	NaN	NaN	NaN	NaN	NaN	NaN	NaN	NaN	NaN	NaN	NaN
181.826139853802	7.08155184355564	2	choice	2	n/a	NaN	NaN	NaN	NaN	d	6	11	0.524785670536077	0.853814968245462	2.96273492775089	83.8378807534661	38.7004681213976	1.88362051778864	188.89702771767	7.07088786386885	1
192.756732947193	2.01615708880126	10	object_onset	2	stay	1.26	50	5	45	n/a	NaN	NaN	NaN	NaN	NaN	NaN	NaN	NaN	NaN	NaN	NaN
200.421451030765	2.01607708935626	10	object_onset	2	stay	0	50	5	45	n/a	NaN	NaN	NaN	NaN	NaN	NaN	NaN	NaN	NaN	NaN	NaN
206.269892281853	2.01628764881752	4	object_onset	1	switch	1.53792067415716	14	2	12	n/a	NaN	NaN	NaN	NaN	NaN	NaN	NaN	NaN	NaN	NaN	NaN
213.901424189331	2.01616604905576	6	object_onset	2	switch	0.458911756223351	13	44	-31	n/a	NaN	NaN	NaN	NaN	NaN	NaN	NaN	NaN	NaN	NaN	NaN
219.516640928108	2.01616284903139	8	object_onset	2	stay	0.814984662432368	16	44	-28	n/a	NaN	NaN	NaN	NaN	NaN	NaN	NaN	NaN	NaN	NaN	NaN
226.064980995376	2.0161730889231	2	object_onset	1	switch	1.20747670784989	5	16	-11	n/a	NaN	NaN	NaN	NaN	NaN	NaN	NaN	NaN	NaN	NaN	NaN
232.929929094622	2.01616828888655	5	object_onset	2	switch	0.853814968245462	3	71	-68	n/a	NaN	NaN	NaN	NaN	NaN	NaN	NaN	NaN	NaN	NaN	NaN
237.328854088672	2.88260438549332	5	choice	2	n/a	NaN	NaN	NaN	NaN	d	9	12	0.524785670536077	0.9	16.3922524520963	69.7128832525924	1.4210854715202e-14	52.9909262905921	240.204473527381	2.87561943870969	1
243.310651243664	2.01618492882699	3	object_onset	1	switch	0.814984662432368	11	50	-39	n/a	NaN	NaN	NaN	NaN	NaN	NaN	NaN	NaN	NaN	NaN	NaN
247.67621662165	7.36480985954404	3	choice	1	n/a	NaN	NaN	NaN	NaN	d	5	10	0.814984662432368	0.9	59.8748977484675	6.10671340736224	47.6207587871056	2.1316282072803e-14	255.036322170403	7.36010554875247	1
259.356618195307	2.0161513290368	5	object_onset	1	stay	0.814984662432368	71	3	68	n/a	NaN	NaN	NaN	NaN	NaN	NaN	NaN	NaN	NaN	NaN	NaN
265.021881878143	2.01604796899483	3	object_onset	1	stay	0.814984662432368	11	50	-39	n/a	NaN	NaN	NaN	NaN	NaN	NaN	NaN	NaN	NaN	NaN	NaN
272.636596217752	2.01604636921547	5	object_onset	2	switch	0.814984662432368	3	71	-68	n/a	NaN	NaN	NaN	NaN	NaN	NaN	NaN	NaN	NaN	NaN	NaN
278.268712444231	2.01595388934948	9	object_onset	1	switch	0.524785670536077	71	19	52	n/a	NaN	NaN	NaN	NaN	NaN	NaN	NaN	NaN	NaN	NaN	NaN
284.633488383843	11.163972485112	9	choice	1	n/a	NaN	NaN	NaN	NaN	d	12	6	0.458911756223351	0.458911756223351	52.9909262905921	27.2811430344321	53.3206308004961	5.80500911870512	295.779329383746	11.1458409999032	1
299.046643110458	2.01616060896777	1	object_onset	1	stay	1.08747413762351	1	44	-43	n/a	NaN	NaN	NaN	NaN	NaN	NaN	NaN	NaN	NaN	NaN	NaN
304.37862967304	2.0161708490923	11	object_onset	1	stay	0.569209978830308	3	100	-97	n/a	NaN	NaN	NaN	NaN	NaN	NaN	NaN	NaN	NaN	NaN	NaN
310.010551339714	2.01614652900025	9	object_onset	2	switch	0.814984662432368	19	71	-52	n/a	NaN	NaN	NaN	NaN	NaN	NaN	NaN	NaN	NaN	NaN	NaN
316.142295726808	2.01619388884865	2	object_onset	1	switch	0.9	5	16	-11	n/a	NaN	NaN	NaN	NaN	NaN	NaN	NaN	NaN	NaN	NaN	NaN
322.357390673831	2.01620508893393	7	object_onset	2	switch	1.27914033631967	2	90	-88	n/a	NaN	NaN	NaN	NaN	NaN	NaN	NaN	NaN	NaN	NaN	NaN
328.405889460817	2.01615420891903	11	object_onset	2	stay	1.26	100	3	97	n/a	NaN	NaN	NaN	NaN	NaN	NaN	NaN	NaN	NaN	NaN	NaN
334.620984087698	2.01616476895288	9	object_onset	2	stay	0.814984662432368	19	71	-52	n/a	NaN	NaN	NaN	NaN	NaN	NaN	NaN	NaN	NaN	NaN	NaN
339.936300282367	5.36531833861955	9	choice	2	n/a	NaN	NaN	NaN	NaN	d	4	3	0.648999229583518	0.9	31.2285063350093	17.3313068341025	59.8748977484675	56.8490675010204	345.293919115793	5.35761883342639	1
350.450348255457	2.01617052895017	8	object_onset	1	switch	0.36	44	16	28	n/a	NaN	NaN	NaN	NaN	NaN	NaN	NaN	NaN	NaN	NaN	NaN
358.265098371077	2.01608572900295	6	object_onset	2	switch	0.814984662432368	13	44	-31	n/a	NaN	NaN	NaN	NaN	NaN	NaN	NaN	NaN	NaN	NaN	NaN
364.346829734044	2.016186529072	7	object_onset	2	stay	0.763675323681471	2	90	-88	n/a	NaN	NaN	NaN	NaN	NaN	NaN	NaN	NaN	NaN	NaN	NaN
371.078488169471	2.01616988889873	10	object_onset	1	switch	1.08747413762351	5	50	-45	n/a	NaN	NaN	NaN	NaN	NaN	NaN	NaN	NaN	NaN	NaN	NaN
376.493982519489	2.01596946152858	12	object_onset	1	stay	0.458911756223351	18	72	-54	n/a	NaN	NaN	NaN	NaN	NaN	NaN	NaN	NaN	NaN	NaN	NaN
382.708871278912	2.01618172903545	7	object_onset	1	stay	0.9	90	2	88	n/a	NaN	NaN	NaN	NaN	NaN	NaN	NaN	NaN	NaN	NaN	NaN
387.490880337544	6.88174742716365	7	choice	1	n/a	NaN	NaN	NaN	NaN	d	10	12	1.08747413762351	0.9	85.4771471461812	72.4864622809436	48.3436681716825	70.4357926371693	394.363257542718	6.87237720517442	-1
398.821545302635	2.01611932902597	8	object_onset	2	switch	0.524785670536077	16	44	-28	n/a	NaN	NaN	NaN	NaN	NaN	NaN	NaN	NaN	NaN	NaN	NaN
403.936883321265	2.01604156917892	3	object_onset	2	stay	0.9	50	11	39	n/a	NaN	NaN	NaN	NaN	NaN	NaN	NaN	NaN	NaN	NaN	NaN
411.118286812911	2.01613340899348	12	object_onset	1	switch	0.458911756223351	18	72	-54	n/a	NaN	NaN	NaN	NaN	NaN	NaN	NaN	NaN	NaN	NaN	NaN
415.283940894995	9.33107040426694	12	choice	1	n/a	NaN	NaN	NaN	NaN	d	8	1	0.524785670536077	0.763675323681471	25.7097832561599	17.1247340052303	56.1629049914503	27.8392176156901	424.601507005282	9.31756611028686	1
427.580921764718	2.01616412890144	8	object_onset	1	stay	0.524785670536077	44	16	28	n/a	NaN	NaN	NaN	NaN	NaN	NaN	NaN	NaN	NaN	NaN	NaN
434.579163688002	2.01615900895558	12	object_onset	2	switch	0.524785670536077	72	18	54	n/a	NaN	NaN	NaN	NaN	NaN	NaN	NaN	NaN	NaN	NaN	NaN
441.244123691227	2.01607548934408	11	object_onset	1	switch	0.36	3	100	-97	n/a	NaN	NaN	NaN	NaN	NaN	NaN	NaN	NaN	NaN	NaN	NaN
447.209497837815	2.01593404938467	4	object_onset	1	stay	1.27914033631967	14	2	12	n/a	NaN	NaN	NaN	NaN	NaN	NaN	NaN	NaN	NaN	NaN	NaN
452.241383536719	2.01603676914237	9	object_onset	1	stay	0.9	71	19	52	n/a	NaN	NaN	NaN	NaN	NaN	NaN	NaN	NaN	NaN	NaN	NaN
459.52285851608	2.0161830089055	1	object_onset	2	switch	1.08747413762351	44	1	43	n/a	NaN	NaN	NaN	NaN	NaN	NaN	NaN	NaN	NaN	NaN	NaN
463.87176504638	1.8828347849194	1	choice	2	n/a	NaN	NaN	NaN	NaN	d	11	9	0.569209978830308	1.08747413762351	55.5141933777059	25.481413184806	2.25042862220399	70.1156602958224	465.749201441649	1.87743639526889	1
470.670068153413	2.01605436927639	7	object_onset	1	switch	1.53792067415716	90	2	88	n/a	NaN	NaN	NaN	NaN	NaN	NaN	NaN	NaN	NaN	NaN	NaN
478.301490301266	2.01614076900296	11	object_onset	2	switch	1.26	100	3	97	n/a	NaN	NaN	NaN	NaN	NaN	NaN	NaN	NaN	NaN	NaN	NaN
482.683563487604	2.33289600093849	11	choice	2	n/a	NaN	NaN	NaN	NaN	d	1	8	0.569209978830308	0.853814968245462	55.5141933777059	83.8378807534661	2.25042862220399	40.5840886391862	484.9978057642	2.31424227659591	1
488.282194978325	2.0162662086077	5	object_onset	1	switch	1.20747670784989	71	3	68	n/a	NaN	NaN	NaN	NaN	NaN	NaN	NaN	NaN	NaN	NaN	NaN
493.714255268686	2.01616028905846	6	object_onset	2	switch	0.36	13	44	-31	n/a	NaN	NaN	NaN	NaN	NaN	NaN	NaN	NaN	NaN	NaN	NaN
500.012679015752	2.01611708896235	3	object_onset	1	switch	0.458911756223351	11	50	-39	n/a	NaN	NaN	NaN	NaN	NaN	NaN	NaN	NaN	NaN	NaN	NaN
504.878004394239	2.01624060887843	6	object_onset	1	stay	0.458911756223351	44	13	31	n/a	NaN	NaN	NaN	NaN	NaN	NaN	NaN	NaN	NaN	NaN	NaN
512.326212493703	2.01616348908283	9	object_onset	1	stay	0.458911756223351	71	19	52	n/a	NaN	NaN	NaN	NaN	NaN	NaN	NaN	NaN	NaN	NaN	NaN
519.457784081111	2.01616028905846	5	object_onset	1	stay	0.524785670536077	71	3	68	n/a	NaN	NaN	NaN	NaN	NaN	NaN	NaN	NaN	NaN	NaN	NaN
526.106064436492	2.01619548886083	10	object_onset	2	switch	1.27914033631967	50	5	45	n/a	NaN	NaN	NaN	NaN	NaN	NaN	NaN	NaN	NaN	NaN	NaN
531.687998359092	2.01619964884594	4	object_onset	2	stay	1.53792067415716	2	14	-12	n/a	NaN	NaN	NaN	NaN	NaN	NaN	NaN	NaN	NaN	NaN	NaN
538.919537754497	2.01614076900296	2	object_onset	2	stay	0.569209978830308	16	5	11	n/a	NaN	NaN	NaN	NaN	NaN	NaN	NaN	NaN	NaN	NaN	NaN
545.384543581633	2.01616124901921	2	object_onset	1	switch	0	5	16	-11	n/a	NaN	NaN	NaN	NaN	NaN	NaN	NaN	NaN	NaN	NaN	NaN
550.799841984408	2.0161990087945	4	object_onset	1	stay	0.569209978830308	14	2	12	n/a	NaN	NaN	NaN	NaN	NaN	NaN	NaN	NaN	NaN	NaN	NaN
558.264645251911	2.0161826889962	5	object_onset	1	stay	0.524785670536077	71	3	68	n/a	NaN	NaN	NaN	NaN	NaN	NaN	NaN	NaN	NaN	NaN	NaN
566.079372327775	2.01612476888113	9	object_onset	1	stay	0.524785670536077	71	19	52	n/a	NaN	NaN	NaN	NaN	NaN	NaN	NaN	NaN	NaN	NaN	NaN
571.644601962529	2.0161929288879	2	object_onset	1	stay	0.9	5	16	-11	n/a	NaN	NaN	NaN	NaN	NaN	NaN	NaN	NaN	NaN	NaN	NaN
577.64297668566	1.94965353654698	2	choice	1	n/a	NaN	NaN	NaN	NaN	d	8	11	0.853814968245462	1.20747670784989	1.88362051778864	38.7004681213976	83.8378807534661	0	579.581192804268	1.93821611860767	1
582.508526063757	2.01608956907876	7	object_onset	1	stay	1.27914033631967	90	2	88	n/a	NaN	NaN	NaN	NaN	NaN	NaN	NaN	NaN	NaN	NaN	NaN
588.090493906289	2.01614908897318	8	object_onset	1	stay	0.524785670536077	44	16	28	n/a	NaN	NaN	NaN	NaN	NaN	NaN	NaN	NaN	NaN	NaN	NaN
595.788521046052	2.01614876906388	4	object_onset	2	switch	1.26	2	14	-12	n/a	NaN	NaN	NaN	NaN	NaN	NaN	NaN	NaN	NaN	NaN	NaN
601.25380751281	2.0161577288527	6	object_onset	1	switch	0.458911756223351	44	13	31	n/a	NaN	NaN	NaN	NaN	NaN	NaN	NaN	NaN	NaN	NaN	NaN
608.918568156427	2.01616444904357	5	object_onset	2	switch	0.36	3	71	-68	n/a	NaN	NaN	NaN	NaN	NaN	NaN	NaN	NaN	NaN	NaN	NaN
614.150592030957	2.01615452906117	11	object_onset	1	switch	1.20747670784989	3	100	-97	n/a	NaN	NaN	NaN	NaN	NaN	NaN	NaN	NaN	NaN	NaN	NaN
620.299038145924	2.01615836890414	1	object_onset	1	stay	0.569209978830308	1	44	-43	n/a	NaN	NaN	NaN	NaN	NaN	NaN	NaN	NaN	NaN	NaN	NaN
625.647700516507	1.76618956890889	1	choice	1	n/a	NaN	NaN	NaN	NaN	d	9	3	0.458911756223351	1.08747413762351	10.2407625473549	70.1156602958224	5.74709315020333	25.481413184806	627.394580362365	1.74687984585762	1
630.863056903007	2.01612092903815	1	object_onset	1	stay	0	1	44	-43	n/a	NaN	NaN	NaN	NaN	NaN	NaN	NaN	NaN	NaN	NaN	NaN
637.111442986177	2.01615004893392	12	object_onset	2	switch	0.763675323681471	72	18	54	n/a	NaN	NaN	NaN	NaN	NaN	NaN	NaN	NaN	NaN	NaN	NaN
643.576493933098	2.01614204910584	9	object_onset	1	switch	0.458911756223351	71	19	52	n/a	NaN	NaN	NaN	NaN	NaN	NaN	NaN	NaN	NaN	NaN	NaN
650.37476824061	2.01616316894069	3	object_onset	2	switch	0.648999229583518	50	11	39	n/a	NaN	NaN	NaN	NaN	NaN	NaN	NaN	NaN	NaN	NaN	NaN
655.473409011029	2.01623228890821	11	object_onset	1	switch	0.524785670536077	3	100	-97	n/a	NaN	NaN	NaN	NaN	NaN	NaN	NaN	NaN	NaN	NaN	NaN
662.10513515817	2.01616988889873	8	object_onset	2	switch	0.853814968245462	16	44	-28	n/a	NaN	NaN	NaN	NaN	NaN	NaN	NaN	NaN	NaN	NaN	NaN
666.470715256175	3.74904624186456	8	choice	2	n/a	NaN	NaN	NaN	NaN	d	1	7	0.524785670536077	1.27914033631967	14.272887645719	28.3236873757602	46.7766790247836	42.8345172613902	670.206906802719	3.73619154654443	1
674.718631900381	2.01620828872547	10	object_onset	1	switch	0.569209978830308	5	50	-45	n/a	NaN	NaN	NaN	NaN	NaN	NaN	NaN	NaN	NaN	NaN	NaN
679.817364830757	5.16533888247795	10	choice	1	n/a	NaN	NaN	NaN	NaN	d	4	6	1.08747413762351	1.53792067415716	38.7004681213976	9.13254365480929	37.0335154537144	48.5598131691118	684.970602936577	5.15323810582049	1
690.264706371818	2.01616636896506	7	object_onset	2	switch	1.08747413762351	2	90	-88	n/a	NaN	NaN	NaN	NaN	NaN	NaN	NaN	NaN	NaN	NaN	NaN
697.262843015371	2.01619388884865	3	object_onset	2	stay	1.08747413762351	50	11	39	n/a	NaN	NaN	NaN	NaN	NaN	NaN	NaN	NaN	NaN	NaN	NaN
702.744914089795	2.01614684914239	5	object_onset	1	switch	0.814984662432368	71	3	68	n/a	NaN	NaN	NaN	NaN	NaN	NaN	NaN	NaN	NaN	NaN	NaN
708.660113292746	4.59884077007882	5	choice	1	n/a	NaN	NaN	NaN	NaN	d	7	8	0.569209978830308	0.853814968245462	19.4955359903515	27.2811430344322	0.72290938457687	13.5499782611421	713.252481115283	4.5923678225372	1
718.524254993536	2.01621148874983	6	object_onset	1	stay	0.36	44	13	31	n/a	NaN	NaN	NaN	NaN	NaN	NaN	NaN	NaN	NaN	NaN	NaN
723.972931572003	2.01614972902462	10	object_onset	2	switch	1.08747413762351	50	5	45	n/a	NaN	NaN	NaN	NaN	NaN	NaN	NaN	NaN	NaN	NaN	NaN
729.088314070599	10.9305607732385	10	choice	2	n/a	NaN	NaN	NaN	NaN	d	11	2	0.524785670536077	1.26	49.7671002275026	34.0707805259635	1.88362051778864	1.77635683940025e-15	740.009539181832	10.9212251112331	1
744.367776573868	2.01616860902868	9	object_onset	2	stay	0.763675323681471	19	71	-52	n/a	NaN	NaN	NaN	NaN	NaN	NaN	NaN	NaN	NaN	NaN	NaN
749.649669472594	2.01627100887708	2	object_onset	2	stay	0.9	16	5	11	n/a	NaN	NaN	NaN	NaN	NaN	NaN	NaN	NaN	NaN	NaN	NaN
756.698007939849	2.01614044909365	4	object_onset	1	switch	0.569209978830308	14	2	12	n/a	NaN	NaN	NaN	NaN	NaN	NaN	NaN	NaN	NaN	NaN	NaN
762.27994026267	2.01607516896911	11	object_onset	2	switch	1.27914033631967	100	3	97	n/a	NaN	NaN	NaN	NaN	NaN	NaN	NaN	NaN	NaN	NaN	NaN
767.695207305253	2.01619388884865	3	object_onset	2	stay	0.524785670536077	50	11	39	n/a	NaN	NaN	NaN	NaN	NaN	NaN	NaN	NaN	NaN	NaN	NaN
773.093852939783	2.0161513290368	7	object_onset	1	switch	1.08747413762351	90	2	88	n/a	NaN	NaN	NaN	NaN	NaN	NaN	NaN	NaN	NaN	NaN	NaN
778.425728462636	2.01624796888791	12	object_onset	1	stay	0.9	18	72	-54	n/a	NaN	NaN	NaN	NaN	NaN	NaN	NaN	NaN	NaN	NaN	NaN
784.357686353382	2.01614396902733	11	object_onset	2	switch	0.36	100	3	97	n/a	NaN	NaN	NaN	NaN	NaN	NaN	NaN	NaN	NaN	NaN	NaN
789.373115763767	2.01616636896506	7	object_onset	1	switch	1.26	90	2	88	n/a	NaN	NaN	NaN	NaN	NaN	NaN	NaN	NaN	NaN	NaN	NaN
796.887887255289	2.01612892909907	10	object_onset	1	stay	1.08747413762351	5	50	-45	n/a	NaN	NaN	NaN	NaN	NaN	NaN	NaN	NaN	NaN	NaN	NaN
803.85271964292	2.01619740878232	6	object_onset	2	switch	1.08747413762351	13	44	-31	n/a	NaN	NaN	NaN	NaN	NaN	NaN	NaN	NaN	NaN	NaN	NaN
809.018160285195	2.01616220897995	4	object_onset	2	stay	0.458911756223351	2	14	-12	n/a	NaN	NaN	NaN	NaN	NaN	NaN	NaN	NaN	NaN	NaN	NaN
815.666345280595	2.01626652874984	10	object_onset	1	switch	1.53792067415716	5	50	-45	n/a	NaN	NaN	NaN	NaN	NaN	NaN	NaN	NaN	NaN	NaN	NaN
821.714936547447	2.01614844892174	8	object_onset	2	switch	0.569209978830308	16	44	-28	n/a	NaN	NaN	NaN	NaN	NaN	NaN	NaN	NaN	NaN	NaN	NaN
828.030015942408	2.0160844491329	12	object_onset	1	switch	0.524785670536077	18	72	-54	n/a	NaN	NaN	NaN	NaN	NaN	NaN	NaN	NaN	NaN	NaN	NaN
833.028741384856	2.01607388909906	12	object_onset	2	switch	0	72	18	54	n/a	NaN	NaN	NaN	NaN	NaN	NaN	NaN	NaN	NaN	NaN	NaN
839.26042254013	3.06601459323429	12	choice	2	n/a	NaN	NaN	NaN	NaN	d	10	1	0.458911756223351	0.763675323681471	22.0921244654868	27.8392176156901	12.9906848652376	17.1247340052303	842.307283570059	3.04686102992855	1
847.108533871593	2.01615484897047	4	object_onset	1	switch	1.08747413762351	14	2	12	n/a	NaN	NaN	NaN	NaN	NaN	NaN	NaN	NaN	NaN	NaN	NaN
852.323921938194	4.48220035410486	4	choice	1	n/a	NaN	NaN	NaN	NaN	d	7	5	0.524785670536077	1.08747413762351	56.8490675010205	76.3446034913719	0.93905438200614	0.216144997429269	856.787204888649	4.46328295045532	1
859.738664181903	2.01609884900972	11	object_onset	1	stay	1.27914033631967	3	100	-97	n/a	NaN	NaN	NaN	NaN	NaN	NaN	NaN	NaN	NaN	NaN	NaN
864.637487416156	3.78238025773317	11	choice	1	n/a	NaN	NaN	NaN	NaN	d	2	9	0.853814968245462	0.814984662432368	1.88362051778864	67.8652316736184	83.8378807534661	80.9956065625119	868.406156020239	3.76866860408336	-1
872.86862553237	2.01625244878232	2	object_onset	2	switch	0.853814968245462	16	5	11	n/a	NaN	NaN	NaN	NaN	NaN	NaN	NaN	NaN	NaN	NaN	NaN
878.217364382697	2.01619580900297	10	object_onset	1	switch	1.26	5	50	-45	n/a	NaN	NaN	NaN	NaN	NaN	NaN	NaN	NaN	NaN	NaN	NaN
884.332491201581	2.01616124901921	2	object_onset	1	stay	1.26	5	16	-11	n/a	NaN	NaN	NaN	NaN	NaN	NaN	NaN	NaN	NaN	NaN	NaN
890.164387524361	2.01616028905846	3	object_onset	2	switch	0.36	50	11	39	n/a	NaN	NaN	NaN	NaN	NaN	NaN	NaN	NaN	NaN	NaN	NaN
896.729369799607	2.94929609750398	3	choice	2	n/a	NaN	NaN	NaN	NaN	d	6	7	0.458911756223351	1.08747413762351	37.0335154537144	48.3436681716825	32.5937547140354	79.370433738819	899.663082567044	2.9337127674371	1
902.877818154637	2.0161574089434	2	object_onset	2	stay	0.36	16	5	11	n/a	NaN	NaN	NaN	NaN	NaN	NaN	NaN	NaN	NaN	NaN	NaN
909.992695374181	2.01615900895558	2	object_onset	2	stay	0	16	5	11	n/a	NaN	NaN	NaN	NaN	NaN	NaN	NaN	NaN	NaN	NaN	NaN
917.590818065684	2.01615420891903	5	object_onset	2	stay	0.853814968245462	3	71	-68	n/a	NaN	NaN	NaN	NaN	NaN	NaN	NaN	NaN	NaN	NaN	NaN
923.439333876595	2.01615292881615	9	object_onset	2	stay	0.524785670536077	19	71	-52	n/a	NaN	NaN	NaN	NaN	NaN	NaN	NaN	NaN	NaN	NaN	NaN
929.371137527516	2.01620700885542	1	object_onset	1	switch	1.08747413762351	1	44	-43	n/a	NaN	NaN	NaN	NaN	NaN	NaN	NaN	NaN	NaN	NaN	NaN
935.886204698589	2.01615420891903	8	object_onset	1	stay	1.27914033631967	44	16	28	n/a	NaN	NaN	NaN	NaN	NaN	NaN	NaN	NaN	NaN	NaN	NaN
943.717557662399	2.01616284903139	12	object_onset	1	stay	0.524785670536077	18	72	-54	n/a	NaN	NaN	NaN	NaN	NaN	NaN	NaN	NaN	NaN	NaN	NaN
950.415836641565	2.01615932909772	10	object_onset	2	switch	0.458911756223351	50	5	45	n/a	NaN	NaN	NaN	NaN	NaN	NaN	NaN	NaN	NaN	NaN	NaN
957.064174276777	2.01615356910042	8	object_onset	2	stay	0.569209978830308	16	44	-28	n/a	NaN	NaN	NaN	NaN	NaN	NaN	NaN	NaN	NaN	NaN	NaN
962.946051623672	2.01613308908418	11	object_onset	1	switch	0.853814968245462	3	100	-97	n/a	NaN	NaN	NaN	NaN	NaN	NaN	NaN	NaN	NaN	NaN	NaN
970.694069067482	2.01615548902191	12	object_onset	1	stay	0.36	18	72	-54	n/a	NaN	NaN	NaN	NaN	NaN	NaN	NaN	NaN	NaN	NaN	NaN
976.425976462197	2.01617532898672	3	object_onset	1	stay	0.458911756223351	11	50	-39	n/a	NaN	NaN	NaN	NaN	NaN	NaN	NaN	NaN	NaN	NaN	NaN
984.074065137887	2.01613468909636	4	object_onset	2	switch	0.763675323681471	2	14	-12	n/a	NaN	NaN	NaN	NaN	NaN	NaN	NaN	NaN	NaN	NaN	NaN
991.288885525428	2.01618524896912	8	object_onset	1	switch	1.26	44	16	28	n/a	NaN	NaN	NaN	NaN	NaN	NaN	NaN	NaN	NaN	NaN	NaN
997.387369496282	6.56503347516991	8	choice	1	n/a	NaN	NaN	NaN	NaN	d	3	2	0.9	1.20747670784989	32.5937547140353	38.7004681213976	34.0707805259635	0	1003.93656492187	6.54919542558491	1
1007.41806991748	2.01627260865644	5	object_onset	1	stay	0.853814968245462	71	3	68	n/a	NaN	NaN	NaN	NaN	NaN	NaN	NaN	NaN	NaN	NaN	NaN
1013.93317100848	2.01608604891226	9	object_onset	2	switch	0.524785670536077	19	71	-52	n/a	NaN	NaN	NaN	NaN	NaN	NaN	NaN	NaN	NaN	NaN	NaN
1019.39851859491	2.0161414090544	8	object_onset	2	stay	0.36	16	44	-28	n/a	NaN	NaN	NaN	NaN	NaN	NaN	NaN	NaN	NaN	NaN	NaN
1025.11372426176	2.01612540893257	7	object_onset	2	stay	0.524785670536077	2	90	-88	n/a	NaN	NaN	NaN	NaN	NaN	NaN	NaN	NaN	NaN	NaN	NaN
1031.97854212136	2.0162441288121	1	object_onset	1	switch	1.53792067415716	1	44	-43	n/a	NaN	NaN	NaN	NaN	NaN	NaN	NaN	NaN	NaN	NaN	NaN
1037.94382250798	2.01604316919111	4	object_onset	1	stay	1.08747413762351	14	2	12	n/a	NaN	NaN	NaN	NaN	NaN	NaN	NaN	NaN	NaN	NaN	NaN
1042.99255649443	2.01613436895423	10	object_onset	2	switch	1.53792067415716	50	5	45	n/a	NaN	NaN	NaN	NaN	NaN	NaN	NaN	NaN	NaN	NaN	NaN
1048.09127438487	2.01614812901244	6	object_onset	2	stay	1.08747413762351	13	44	-31	n/a	NaN	NaN	NaN	NaN	NaN	NaN	NaN	NaN	NaN	NaN	NaN
1054.60629483592	4.21564374607988	6	choice	2	n/a	NaN	NaN	NaN	NaN	d	2	10	0.524785670536077	1.08747413762351	2.96273492775089	37.0335154537144	38.7004681213976	38.7004681213976	1058.80322629795	4.19693146203645	1
1063.70396248857	2.01620188867673	12	object_onset	2	stay	0.648999229583518	72	18	54	n/a	NaN	NaN	NaN	NaN	NaN	NaN	NaN	NaN	NaN	NaN	NaN
1070.61891529174	2.01608348917216	6	object_onset	1	switch	0.648999229583518	44	13	31	n/a	NaN	NaN	NaN	NaN	NaN	NaN	NaN	NaN	NaN	NaN	NaN
1077.30058982293	6.06512979487889	6	choice	1	n/a	NaN	NaN	NaN	NaN	d	5	4	0.458911756223351	0.36	29.5679244665883	27.2811430344322	11.5262977153973	10.5872433333912	1083.35090940632	6.05031958338805	-1
1087.84810621175	2.01593980938196	10	object_onset	1	stay	1.08747413762351	5	50	-45	n/a	NaN	NaN	NaN	NaN	NaN	NaN	NaN	NaN	NaN	NaN	NaN
1094.44622122333	2.01605020905845	1	object_onset	2	switch	1.08747413762351	44	1	43	n/a	NaN	NaN	NaN	NaN	NaN	NaN	NaN	NaN	NaN	NaN	NaN
1099.31169380154	2.01615612907335	6	object_onset	2	stay	0.9	13	44	-31	n/a	NaN	NaN	NaN	NaN	NaN	NaN	NaN	NaN	NaN	NaN	NaN
1104.19380506803	2.01616444881074	7	object_onset	1	switch	0.763675323681471	90	2	88	n/a	NaN	NaN	NaN	NaN	NaN	NaN	NaN	NaN	NaN	NaN	NaN
1109.0757563347	2.0162754887715	2	object_onset	1	stay	1.27914033631967	5	16	-11	n/a	NaN	NaN	NaN	NaN	NaN	NaN	NaN	NaN	NaN	NaN	NaN
1116.54065816198	2.01615324895829	3	object_onset	1	stay	0.36	11	50	-39	n/a	NaN	NaN	NaN	NaN	NaN	NaN	NaN	NaN	NaN	NaN	NaN
1123.78887720546	2.0161161290016	11	object_onset	2	switch	0.524785670536077	100	3	97	n/a	NaN	NaN	NaN	NaN	NaN	NaN	NaN	NaN	NaN	NaN	NaN
