onset	duration	object	trial_type	map	stayswitch	distance	value	counterfactual_value	value_diff	choicetype	object1	object2	chosen_distance	unchosen_distance	chosen_value	unchosen_value	counterfactual_chosen_value	counterfactual_unchosen_value	button	response_time	cr
8.76849218674761	2.01616027345881	11	object_onset	1	n/a	NaN	NaN	NaN	NaN	n/a	NaN	NaN	NaN	NaN	NaN	NaN	NaN	NaN	NaN	NaN	NaN
13.9172162384202	2.01613819351769	3	object_onset	2	switch	0.524785670536077	50	11	39	n/a	NaN	NaN	NaN	NaN	NaN	NaN	NaN	NaN	NaN	NaN	NaN
20.4155655231734	2.01611291359586	5	object_onset	1	switch	0.814984662432368	71	3	68	n/a	NaN	NaN	NaN	NaN	NaN	NaN	NaN	NaN	NaN	NaN	NaN
25.5641497352481	2.01627739312244	12	object_onset	1	stay	0.9	18	72	-54	n/a	NaN	NaN	NaN	NaN	NaN	NaN	NaN	NaN	NaN	NaN	NaN
29.6297444263328	5.54875009960961	12	choice	1	n/a	NaN	NaN	NaN	NaN	d	5	1	0.763675323681471	0.9	17.1247340052303	52.9909262905921	27.8392176156901	69.7128832525924	35.1699473505578	5.54020292422501	1
39.7773065613583	2.01615579347708	6	object_onset	2	switch	0.648999229583518	13	44	-31	n/a	NaN	NaN	NaN	NaN	NaN	NaN	NaN	NaN	NaN	NaN	NaN
44.7927484368847	2.01611739357759	7	object_onset	1	switch	0.763675323681471	90	2	88	n/a	NaN	NaN	NaN	NaN	NaN	NaN	NaN	NaN	NaN	NaN	NaN
51.0076930978394	2.01630715304054	8	object_onset	1	stay	0.524785670536077	44	16	28	n/a	NaN	NaN	NaN	NaN	NaN	NaN	NaN	NaN	NaN	NaN	NaN
56.5231082534447	2.01601275388384	10	object_onset	2	switch	0.569209978830308	50	5	45	n/a	NaN	NaN	NaN	NaN	NaN	NaN	NaN	NaN	NaN	NaN	NaN
61.6218100491824	2.01613947351871	5	object_onset	2	stay	1.27914033631967	3	71	-68	n/a	NaN	NaN	NaN	NaN	NaN	NaN	NaN	NaN	NaN	NaN	NaN
67.1537649971579	2.01613019354409	8	object_onset	1	switch	0.853814968245462	44	16	28	n/a	NaN	NaN	NaN	NaN	NaN	NaN	NaN	NaN	NaN	NaN	NaN
72.452425577023	2.01615323347505	8	object_onset	2	switch	0	16	44	-28	n/a	NaN	NaN	NaN	NaN	NaN	NaN	NaN	NaN	NaN	NaN	NaN
77.5011540766718	2.0161324335495	4	object_onset	1	switch	1.26	14	2	12	n/a	NaN	NaN	NaN	NaN	NaN	NaN	NaN	NaN	NaN	NaN	NaN
82.9330901126959	2.01604283379856	5	object_onset	2	switch	0.524785670536077	3	71	-68	n/a	NaN	NaN	NaN	NaN	NaN	NaN	NaN	NaN	NaN	NaN	NaN
88.2149741008761	2.01631259302667	1	object_onset	2	stay	1.26	44	1	43	n/a	NaN	NaN	NaN	NaN	NaN	NaN	NaN	NaN	NaN	NaN	NaN
93.2303993364476	2.0162805931177	8	object_onset	2	stay	1.27914033631967	16	44	-28	n/a	NaN	NaN	NaN	NaN	NaN	NaN	NaN	NaN	NaN	NaN	NaN
98.812405020275	2.01615419347945	8	object_onset	1	switch	0	44	16	28	n/a	NaN	NaN	NaN	NaN	NaN	NaN	NaN	NaN	NaN	NaN	NaN
104.377663872336	10.0974573193234	8	choice	1	n/a	NaN	NaN	NaN	NaN	v	6	7	0.524785670536077	0.814984662432368	46.7766790247836	7.105427357601e-15	14.272887645719	2.96273492775089	114.461441551044	10.0837776787084	-1
117.724213914262	2.01628283310856	6	object_onset	1	stay	0.814984662432368	44	13	31	n/a	NaN	NaN	NaN	NaN	NaN	NaN	NaN	NaN	NaN	NaN	NaN
124.539263086917	2.01617915340466	8	object_onset	2	switch	0.814984662432368	16	44	-28	n/a	NaN	NaN	NaN	NaN	NaN	NaN	NaN	NaN	NaN	NaN	NaN
131.520825380023	2.01618811338267	4	object_onset	2	stay	1.26	2	14	-12	n/a	NaN	NaN	NaN	NaN	NaN	NaN	NaN	NaN	NaN	NaN	NaN
138.835652313326	2.01615163347742	10	object_onset	2	stay	1.53792067415716	50	5	45	n/a	NaN	NaN	NaN	NaN	NaN	NaN	NaN	NaN	NaN	NaN	NaN
145.033966942181	8.1647208055947	10	choice	2	n/a	NaN	NaN	NaN	NaN	d	3	4	0.9	1.53792067415716	2.1316282072803e-14	48.5598131691118	6.10671340736224	9.13254365480929	153.187638499599	8.15367155741842	1
156.031315109809	2.01618363340094	1	object_onset	1	switch	1.08747413762351	1	44	-43	n/a	NaN	NaN	NaN	NaN	NaN	NaN	NaN	NaN	NaN	NaN	NaN
163.012883482894	2.01618619338842	6	object_onset	1	stay	0.9	44	13	31	n/a	NaN	NaN	NaN	NaN	NaN	NaN	NaN	NaN	NaN	NaN	NaN
169.67789084767	7.23150749327033	6	choice	1	n/a	NaN	NaN	NaN	NaN	d	8	11	0.9	0.814984662432368	40.5840886391862	7.105427357601e-15	86.800615681217	2.96273492775089	176.890759674614	7.21286882694403	-1
180.775049927863	2.01617659340263	3	object_onset	2	switch	0.458911756223351	50	11	39	n/a	NaN	NaN	NaN	NaN	NaN	NaN	NaN	NaN	NaN	NaN	NaN
188.306494797303	2.01619131336338	4	object_onset	1	switch	0.763675323681471	14	2	12	n/a	NaN	NaN	NaN	NaN	NaN	NaN	NaN	NaN	NaN	NaN	NaN
193.60504433747	7.3482898769289	4	choice	1	n/a	NaN	NaN	NaN	NaN	v	10	9	0.9	1.53792067415716	56.8490675010204	9.13254365480929	17.3313068341025	48.5598131691118	200.948384788659	7.34334045118885	-1
205.13558840951	2.0161807534023	12	object_onset	2	switch	1.08747413762351	72	18	54	n/a	NaN	NaN	NaN	NaN	NaN	NaN	NaN	NaN	NaN	NaN	NaN
212.633628895157	2.0162252332666	5	object_onset	1	switch	0.9	71	3	68	n/a	NaN	NaN	NaN	NaN	NaN	NaN	NaN	NaN	NaN	NaN	NaN
216.949272146099	16.5291767159651	5	choice	1	n/a	NaN	NaN	NaN	NaN	v	11	2	1.20747670784989	0.853814968245462	67.8652316736184	65.9816111558298	97.3878590146082	13.5499782611421	233.471584561834	16.5223124157346	-1
236.827474416874	2.01630587303953	3	object_onset	1	stay	0.814984662432368	11	50	-39	n/a	NaN	NaN	NaN	NaN	NaN	NaN	NaN	NaN	NaN	NaN	NaN
241.909662660168	2.01615675348148	4	object_onset	2	switch	0.763675323681471	2	14	-12	n/a	NaN	NaN	NaN	NaN	NaN	NaN	NaN	NaN	NaN	NaN	NaN
246.841727175823	2.01615643347031	2	object_onset	1	switch	0.569209978830308	5	16	-11	n/a	NaN	NaN	NaN	NaN	NaN	NaN	NaN	NaN	NaN	NaN	NaN
253.190004892793	2.01620251333225	9	object_onset	2	switch	0.9	19	71	-52	n/a	NaN	NaN	NaN	NaN	NaN	NaN	NaN	NaN	NaN	NaN	NaN
260.338361905524	2.01614267349942	1	object_onset	1	switch	1.08747413762351	1	44	-43	n/a	NaN	NaN	NaN	NaN	NaN	NaN	NaN	NaN	NaN	NaN	NaN
266.919992870418	2.01615547348047	10	object_onset	2	switch	1.08747413762351	50	5	45	n/a	NaN	NaN	NaN	NaN	NaN	NaN	NaN	NaN	NaN	NaN	NaN
273.684952267344	2.01631419300975	6	object_onset	2	stay	1.08747413762351	13	44	-31	n/a	NaN	NaN	NaN	NaN	NaN	NaN	NaN	NaN	NaN	NaN	NaN
277.733813566621	4.34904283475771	6	choice	2	n/a	NaN	NaN	NaN	NaN	v	7	12	0.648999229583518	0.763675323681471	59.1256399192012	11.3101527179681	25.70978325616	46.7766790247836	282.071491954106	4.33767838748463	-1
285.515302515923	2.01615835346456	2	object_onset	1	switch	0.524785670536077	5	16	-11	n/a	NaN	NaN	NaN	NaN	NaN	NaN	NaN	NaN	NaN	NaN	NaN
291.530336712633	2.01620827331499	1	object_onset	2	switch	0.524785670536077	44	1	43	n/a	NaN	NaN	NaN	NaN	NaN	NaN	NaN	NaN	NaN	NaN	NaN
296.179275003684	8.59783571823209	1	choice	2	n/a	NaN	NaN	NaN	NaN	d	9	12	0.763675323681471	1.08747413762351	27.8392176156901	25.481413184806	17.1247340052303	70.1156602958224	304.769233624611	8.58995862092706	1
309.909134981688	2.01617659341719	9	object_onset	2	stay	1.08747413762351	19	71	-52	n/a	NaN	NaN	NaN	NaN	NaN	NaN	NaN	NaN	NaN	NaN	NaN
317.557210235231	2.01615771347133	8	object_onset	2	stay	0.36	16	44	-28	n/a	NaN	NaN	NaN	NaN	NaN	NaN	NaN	NaN	NaN	NaN	NaN
322.439230095013	2.01624475322023	1	object_onset	2	stay	1.27914033631967	44	1	43	n/a	NaN	NaN	NaN	NaN	NaN	NaN	NaN	NaN	NaN	NaN	NaN
328.604425459256	2.01619035337353	12	object_onset	2	stay	0.763675323681471	72	18	54	n/a	NaN	NaN	NaN	NaN	NaN	NaN	NaN	NaN	NaN	NaN	NaN
334.0197241032	2.01620539333089	10	object_onset	2	stay	0.458911756223351	50	5	45	n/a	NaN	NaN	NaN	NaN	NaN	NaN	NaN	NaN	NaN	NaN	NaN
338.885052171056	2.0163033130375	6	object_onset	1	switch	1.08747413762351	44	13	31	n/a	NaN	NaN	NaN	NaN	NaN	NaN	NaN	NaN	NaN	NaN	NaN
345.750113679678	2.01614203350618	4	object_onset	2	switch	0.458911756223351	2	14	-12	n/a	NaN	NaN	NaN	NaN	NaN	NaN	NaN	NaN	NaN	NaN	NaN
351.998564484136	2.01619195337116	7	object_onset	2	stay	1.08747413762351	2	90	-88	n/a	NaN	NaN	NaN	NaN	NaN	NaN	NaN	NaN	NaN	NaN	NaN
357.530457992281	2.01619419336203	2	object_onset	2	stay	1.27914033631967	16	5	11	n/a	NaN	NaN	NaN	NaN	NaN	NaN	NaN	NaN	NaN	NaN	NaN
362.97912070014	2.0161541934649	3	object_onset	1	switch	0.36	11	50	-39	n/a	NaN	NaN	NaN	NaN	NaN	NaN	NaN	NaN	NaN	NaN	NaN
368.794324752351	3.61574926663889	3	choice	1	n/a	NaN	NaN	NaN	NaN	v	11	6	0.458911756223351	0.524785670536077	32.5937547140354	7.99033392515088	37.0335154537144	49.7671002275025	372.396741257384	3.60241650503303	-1
376.708949318228	2.01620315334003	2	object_onset	2	switch	0.36	16	5	11	n/a	NaN	NaN	NaN	NaN	NaN	NaN	NaN	NaN	NaN	NaN	NaN
382.324208986276	2.01615771347133	10	object_onset	1	switch	1.26	5	50	-45	n/a	NaN	NaN	NaN	NaN	NaN	NaN	NaN	NaN	NaN	NaN	NaN
387.672847982205	2.01617051342328	10	object_onset	1	stay	0	5	50	-45	n/a	NaN	NaN	NaN	NaN	NaN	NaN	NaN	NaN	NaN	NaN	NaN
395.320957475647	2.01613499352243	1	object_onset	2	switch	1.08747413762351	44	1	43	n/a	NaN	NaN	NaN	NaN	NaN	NaN	NaN	NaN	NaN	NaN	NaN
401.43607330411	2.01605691375153	3	object_onset	1	switch	0.458911756223351	11	50	-39	n/a	NaN	NaN	NaN	NaN	NaN	NaN	NaN	NaN	NaN	NaN	NaN
409.250780717746	2.01611835358199	3	object_onset	1	stay	0	11	50	-39	n/a	NaN	NaN	NaN	NaN	NaN	NaN	NaN	NaN	NaN	NaN	NaN
414.599395393743	2.01608219368791	9	object_onset	2	switch	0.648999229583518	19	71	-52	n/a	NaN	NaN	NaN	NaN	NaN	NaN	NaN	NaN	NaN	NaN	NaN
420.364533990141	5.94858606807247	9	choice	2	n/a	NaN	NaN	NaN	NaN	d	12	8	0.458911756223351	0.36	53.3206308004961	2.84227419095423	52.9909262905921	27.2811430344322	426.297839462219	5.93330547207734	-1
430.978632381535	2.01613019354409	7	object_onset	1	switch	0.458911756223351	90	2	88	n/a	NaN	NaN	NaN	NaN	NaN	NaN	NaN	NaN	NaN	NaN	NaN
435.360821040842	8.99773152652779	7	choice	1	n/a	NaN	NaN	NaN	NaN	d	2	8	0.524785670536077	1.27914033631967	46.7766790247836	85.4771471461812	14.272887645719	14.272887645719	444.353993860495	8.99317281965341	1
447.307815433494	2.01614299351058	1	object_onset	2	switch	1.53792067415716	44	1	43	n/a	NaN	NaN	NaN	NaN	NaN	NaN	NaN	NaN	NaN	NaN	NaN
453.989448670385	2.01616635345272	10	object_onset	1	switch	1.08747413762351	5	50	-45	n/a	NaN	NaN	NaN	NaN	NaN	NaN	NaN	NaN	NaN	NaN	NaN
459.688013698527	2.0161631534429	5	object_onset	2	switch	1.27914033631967	3	71	-68	n/a	NaN	NaN	NaN	NaN	NaN	NaN	NaN	NaN	NaN	NaN	NaN
464.053471526	8.44800734973978	5	choice	2	n/a	NaN	NaN	NaN	NaN	v	7	3	0.814984662432368	0.569209978830308	47.6207587871056	0.72290938457687	59.8748977484675	19.4955359903515	472.496228330871	8.44275680487044	-1
476.11724510233	2.01604923378909	7	object_onset	1	switch	0.569209978830308	90	2	88	n/a	NaN	NaN	NaN	NaN	NaN	NaN	NaN	NaN	NaN	NaN	NaN
481.799110978565	2.01608027367911	9	object_onset	2	switch	0.458911756223351	19	71	-52	n/a	NaN	NaN	NaN	NaN	NaN	NaN	NaN	NaN	NaN	NaN	NaN
489.430518760113	2.01615675346693	3	object_onset	1	switch	0.648999229583518	11	50	-39	n/a	NaN	NaN	NaN	NaN	NaN	NaN	NaN	NaN	NaN	NaN	NaN
497.128605069622	2.0160098738852	10	object_onset	1	stay	0.9	5	50	-45	n/a	NaN	NaN	NaN	NaN	NaN	NaN	NaN	NaN	NaN	NaN	NaN
503.393690386176	4.71547761942202	10	choice	1	n/a	NaN	NaN	NaN	NaN	v	6	3	1.08747413762351	0.9	38.7004681213976	6.10671340736224	37.0335154537144	2.1316282072803e-14	508.10044867071	4.70675828453386	-1
513.774335369919	2.01619227336778	6	object_onset	1	stay	1.08747413762351	44	13	31	n/a	NaN	NaN	NaN	NaN	NaN	NaN	NaN	NaN	NaN	NaN	NaN
520.306053198568	2.01615803346795	9	object_onset	2	switch	0.458911756223351	19	71	-52	n/a	NaN	NaN	NaN	NaN	NaN	NaN	NaN	NaN	NaN	NaN	NaN
525.188161698097	2.01619707334612	8	object_onset	1	switch	0.36	44	16	28	n/a	NaN	NaN	NaN	NaN	NaN	NaN	NaN	NaN	NaN	NaN	NaN
532.369705815247	2.01613627352344	1	object_onset	2	switch	1.27914033631967	44	1	43	n/a	NaN	NaN	NaN	NaN	NaN	NaN	NaN	NaN	NaN	NaN	NaN
537.7015960594	2.01626651316474	3	object_onset	2	stay	0.458911756223351	50	11	39	n/a	NaN	NaN	NaN	NaN	NaN	NaN	NaN	NaN	NaN	NaN	NaN
543.21693953521	2.01619451335864	11	object_onset	2	stay	0.524785670536077	100	3	97	n/a	NaN	NaN	NaN	NaN	NaN	NaN	NaN	NaN	NaN	NaN	NaN
550.665101124512	2.01606267373427	10	object_onset	1	switch	0.524785670536077	5	50	-45	n/a	NaN	NaN	NaN	NaN	NaN	NaN	NaN	NaN	NaN	NaN	NaN
558.196493834097	2.01619515336643	10	object_onset	2	switch	0	50	5	45	n/a	NaN	NaN	NaN	NaN	NaN	NaN	NaN	NaN	NaN	NaN	NaN
563.578507773898	2.01616539344832	12	object_onset	2	stay	0.458911756223351	72	18	54	n/a	NaN	NaN	NaN	NaN	NaN	NaN	NaN	NaN	NaN	NaN	NaN
568.877146593819	2.01614747349231	3	object_onset	2	stay	0.458911756223351	50	11	39	n/a	NaN	NaN	NaN	NaN	NaN	NaN	NaN	NaN	NaN	NaN	NaN
575.442184966509	7.11486398919078	3	choice	2	n/a	NaN	NaN	NaN	NaN	v	9	11	0.524785670536077	0.648999229583518	49.7671002275025	31.2285063350093	7.99033392515088	59.8748977484675	582.552076490028	7.10989152351976	-1
586.072790830367	2.01615835346456	4	object_onset	2	stay	0.763675323681471	2	14	-12	n/a	NaN	NaN	NaN	NaN	NaN	NaN	NaN	NaN	NaN	NaN	NaN
591.021547457945	7.64807205354737	4	choice	2	n/a	NaN	NaN	NaN	NaN	d	3	7	0.763675323681471	1.08747413762351	48.5598131691118	0.216144997429269	3.02583024744705	76.3446034913719	598.650549486425	7.62900202847959	1
603.468412090981	2.01614779348893	6	object_onset	2	stay	0.458911756223351	13	44	-31	n/a	NaN	NaN	NaN	NaN	NaN	NaN	NaN	NaN	NaN	NaN	NaN
608.550485454602	2.01616251344967	10	object_onset	1	switch	1.08747413762351	5	50	-45	n/a	NaN	NaN	NaN	NaN	NaN	NaN	NaN	NaN	NaN	NaN	NaN
613.549110738561	2.01628251311195	1	object_onset	1	stay	1.08747413762351	1	44	-43	n/a	NaN	NaN	NaN	NaN	NaN	NaN	NaN	NaN	NaN	NaN	NaN
617.664856325209	4.08229480299633	1	choice	1	n/a	NaN	NaN	NaN	NaN	d	4	2	0.524785670536077	1.08747413762351	4.13404913999263	13.2665927948019	28.3236873757602	42.8127200189084	621.740430507562	4.07557418235228	1
624.613044314436	2.01621019330923	9	object_onset	1	stay	1.08747413762351	71	19	52	n/a	NaN	NaN	NaN	NaN	NaN	NaN	NaN	NaN	NaN	NaN	NaN
629.62850954989	2.01615803346795	2	object_onset	1	stay	0.9	5	16	-11	n/a	NaN	NaN	NaN	NaN	NaN	NaN	NaN	NaN	NaN	NaN	NaN
634.377171713742	4.6156052670558	2	choice	1	n/a	NaN	NaN	NaN	NaN	v	1	10	1.26	0.524785670536077	1.77635683940025e-15	4.13404913999263	34.0707805259635	28.3236873757602	638.975745349861	4.59857363611809	1
641.908702982939	2.01617499341955	11	object_onset	1	stay	0.853814968245462	3	100	-97	n/a	NaN	NaN	NaN	NaN	NaN	NaN	NaN	NaN	NaN	NaN	NaN
648.473747435608	2.01616475344053	1	object_onset	1	stay	0.569209978830308	1	44	-43	n/a	NaN	NaN	NaN	NaN	NaN	NaN	NaN	NaN	NaN	NaN	NaN
655.755257024866	2.01603771380906	5	object_onset	1	stay	1.26	71	3	68	n/a	NaN	NaN	NaN	NaN	NaN	NaN	NaN	NaN	NaN	NaN	NaN
662.336891509753	2.01615355348622	12	object_onset	2	switch	0.9	72	18	54	n/a	NaN	NaN	NaN	NaN	NaN	NaN	NaN	NaN	NaN	NaN	NaN
667.45217245775	5.14882421138464	12	choice	2	n/a	NaN	NaN	NaN	NaN	v	4	5	0.9	1.08747413762351	69.7128832525924	70.6519376345985	52.9909262905921	3.85814121042835	672.585074794988	5.13290233723819	1
675.633541855408	2.01606619372615	4	object_onset	1	switch	1.08747413762351	14	2	12	n/a	NaN	NaN	NaN	NaN	NaN	NaN	NaN	NaN	NaN	NaN	NaN
680.932192515291	2.01616635343817	8	object_onset	1	stay	1.26	44	16	28	n/a	NaN	NaN	NaN	NaN	NaN	NaN	NaN	NaN	NaN	NaN	NaN
686.580788407329	2.01613851352886	7	object_onset	1	stay	0.524785670536077	90	2	88	n/a	NaN	NaN	NaN	NaN	NaN	NaN	NaN	NaN	NaN	NaN	NaN
693.395606540653	2.01631227303005	12	object_onset	2	switch	0.9	72	18	54	n/a	NaN	NaN	NaN	NaN	NaN	NaN	NaN	NaN	NaN	NaN	NaN
699.460867152709	2.01615323347505	5	object_onset	2	stay	0.9	3	71	-68	n/a	NaN	NaN	NaN	NaN	NaN	NaN	NaN	NaN	NaN	NaN	NaN
707.058933910273	2.01616059345542	2	object_onset	2	stay	0.853814968245462	16	5	11	n/a	NaN	NaN	NaN	NaN	NaN	NaN	NaN	NaN	NaN	NaN	NaN
712.407602986103	2.01614011352649	7	object_onset	2	stay	1.27914033631967	2	90	-88	n/a	NaN	NaN	NaN	NaN	NaN	NaN	NaN	NaN	NaN	NaN	NaN
718.772659534749	2.01615707346355	12	object_onset	2	stay	0.9	72	18	54	n/a	NaN	NaN	NaN	NaN	NaN	NaN	NaN	NaN	NaN	NaN	NaN
726.237436756186	2.01615483347268	3	object_onset	1	switch	0.458911756223351	11	50	-39	n/a	NaN	NaN	NaN	NaN	NaN	NaN	NaN	NaN	NaN	NaN	NaN
732.952431817001	2.01615835346456	5	object_onset	2	switch	0.814984662432368	3	71	-68	n/a	NaN	NaN	NaN	NaN	NaN	NaN	NaN	NaN	NaN	NaN	NaN
738.267725628946	2.01608571367979	6	object_onset	2	stay	0.36	13	44	-31	n/a	NaN	NaN	NaN	NaN	NaN	NaN	NaN	NaN	NaN	NaN	NaN
746.032330466885	2.01629723307269	11	object_onset	2	stay	0.9	100	3	97	n/a	NaN	NaN	NaN	NaN	NaN	NaN	NaN	NaN	NaN	NaN	NaN
751.664264006919	2.01616091346659	4	object_onset	1	switch	1.27914033631967	14	2	12	n/a	NaN	NaN	NaN	NaN	NaN	NaN	NaN	NaN	NaN	NaN	NaN
757.462916426797	2.01616219345306	6	object_onset	1	stay	0.458911756223351	44	13	31	n/a	NaN	NaN	NaN	NaN	NaN	NaN	NaN	NaN	NaN	NaN	NaN
764.711048832178	2.01621627330314	7	object_onset	1	stay	0.763675323681471	90	2	88	n/a	NaN	NaN	NaN	NaN	NaN	NaN	NaN	NaN	NaN	NaN	NaN
770.792859156572	2.01615739346016	4	object_onset	2	switch	1.08747413762351	2	14	-12	n/a	NaN	NaN	NaN	NaN	NaN	NaN	NaN	NaN	NaN	NaN	NaN
777.007953257096	2.01619707334612	11	object_onset	2	stay	1.27914033631967	100	3	97	n/a	NaN	NaN	NaN	NaN	NaN	NaN	NaN	NaN	NaN	NaN	NaN
782.323307548882	2.0160553137539	12	object_onset	1	switch	0.36	18	72	-54	n/a	NaN	NaN	NaN	NaN	NaN	NaN	NaN	NaN	NaN	NaN	NaN
787.721945760801	2.0161433135072	9	object_onset	1	stay	0.458911756223351	71	19	52	n/a	NaN	NaN	NaN	NaN	NaN	NaN	NaN	NaN	NaN	NaN	NaN
792.654054116327	2.01610427361447	11	object_onset	2	switch	0.814984662432368	100	3	97	n/a	NaN	NaN	NaN	NaN	NaN	NaN	NaN	NaN	NaN	NaN	NaN
799.352352265225	2.01615803346795	6	object_onset	2	stay	0.9	13	44	-31	n/a	NaN	NaN	NaN	NaN	NaN	NaN	NaN	NaN	NaN	NaN	NaN
805.050878253474	2.01619419336203	11	object_onset	1	switch	0.9	3	100	-97	n/a	NaN	NaN	NaN	NaN	NaN	NaN	NaN	NaN	NaN	NaN	NaN
810.899417569686	11.81370773651	11	choice	1	n/a	NaN	NaN	NaN	NaN	d	2	4	1.27914033631967	0.853814968245462	11.0161641725979	1.88362051778864	98.3269133966143	83.8378807534661	822.695835755992	11.7964181863063	-1
826.012291804596	2.0160108338896	7	object_onset	2	switch	1.26	2	90	-88	n/a	NaN	NaN	NaN	NaN	NaN	NaN	NaN	NaN	NaN	NaN	NaN
831.794126992914	4.09896451498207	7	choice	2	n/a	NaN	NaN	NaN	NaN	d	8	5	0.524785670536077	0.569209978830308	14.272887645719	0.72290938457687	46.7766790247836	19.4955359903515	835.88391649432	4.0897895014059	1
840.675260135249	2.01614971349773	11	object_onset	1	switch	1.26	3	100	-97	n/a	NaN	NaN	NaN	NaN	NaN	NaN	NaN	NaN	NaN	NaN	NaN
845.957137403442	2.01627803313022	9	object_onset	1	stay	0.814984662432368	71	19	52	n/a	NaN	NaN	NaN	NaN	NaN	NaN	NaN	NaN	NaN	NaN	NaN
852.255525024084	2.01629147308995	1	object_onset	1	stay	1.08747413762351	1	44	-43	n/a	NaN	NaN	NaN	NaN	NaN	NaN	NaN	NaN	NaN	NaN	NaN
859.920290149559	2.01628027312108	2	object_onset	2	switch	0.524785670536077	16	5	11	n/a	NaN	NaN	NaN	NaN	NaN	NaN	NaN	NaN	NaN	NaN	NaN
865.802220089608	2.01619931335154	9	object_onset	1	switch	0.9	71	19	52	n/a	NaN	NaN	NaN	NaN	NaN	NaN	NaN	NaN	NaN	NaN	NaN
871.367516701561	3.61574638664024	9	choice	1	n/a	NaN	NaN	NaN	NaN	d	12	1	0.458911756223351	1.08747413762351	52.9909262905921	70.1156602958224	53.3206308004961	25.481413184806	874.976995266261	3.60947856470011	1
879.51543787554	2.01618107339891	7	object_onset	1	stay	0.458911756223351	90	2	88	n/a	NaN	NaN	NaN	NaN	NaN	NaN	NaN	NaN	NaN	NaN	NaN
886.44703295255	2.01612795355322	5	object_onset	2	switch	0.569209978830308	3	71	-68	n/a	NaN	NaN	NaN	NaN	NaN	NaN	NaN	NaN	NaN	NaN	NaN
892.962025389366	2.01612091356947	3	object_onset	2	stay	0.814984662432368	50	11	39	n/a	NaN	NaN	NaN	NaN	NaN	NaN	NaN	NaN	NaN	NaN	NaN
898.510632769379	2.01615771347133	2	object_onset	2	stay	0.36	16	5	11	n/a	NaN	NaN	NaN	NaN	NaN	NaN	NaN	NaN	NaN	NaN	NaN
903.942590565348	4.96542025958479	2	choice	2	n/a	NaN	NaN	NaN	NaN	v	5	10	1.26	0.853814968245462	34.0707805259635	13.5499782611421	1.77635683940025e-15	65.9816111558298	908.894289264455	4.95169869910751	-1
913.440200972225	2.01615931345441	1	object_onset	1	switch	0.524785670536077	1	44	-43	n/a	NaN	NaN	NaN	NaN	NaN	NaN	NaN	NaN	NaN	NaN	NaN
920.621713089466	2.01619643335289	11	object_onset	1	stay	0.569209978830308	3	100	-97	n/a	NaN	NaN	NaN	NaN	NaN	NaN	NaN	NaN	NaN	NaN	NaN
926.020357701374	2.01619547334849	4	object_onset	1	stay	1.27914033631967	14	2	12	n/a	NaN	NaN	NaN	NaN	NaN	NaN	NaN	NaN	NaN	NaN	NaN
932.285476937832	2.01603387382056	7	object_onset	2	switch	1.08747413762351	2	90	-88	n/a	NaN	NaN	NaN	NaN	NaN	NaN	NaN	NaN	NaN	NaN	NaN
937.550816973642	2.0161522734852	12	object_onset	1	switch	0.9	18	72	-54	n/a	NaN	NaN	NaN	NaN	NaN	NaN	NaN	NaN	NaN	NaN	NaN
944.748955603005	2.01616251344967	11	object_onset	1	stay	0.36	3	100	-97	n/a	NaN	NaN	NaN	NaN	NaN	NaN	NaN	NaN	NaN	NaN	NaN
949.897673254702	2.01614811350009	2	object_onset	1	stay	0.853814968245462	5	16	-11	n/a	NaN	NaN	NaN	NaN	NaN	NaN	NaN	NaN	NaN	NaN	NaN
956.162746091286	2.01616635345272	8	object_onset	1	stay	1.20747670784989	44	16	28	n/a	NaN	NaN	NaN	NaN	NaN	NaN	NaN	NaN	NaN	NaN	NaN
963.327611536486	2.0161669934314	7	object_onset	2	switch	0.524785670536077	2	90	-88	n/a	NaN	NaN	NaN	NaN	NaN	NaN	NaN	NaN	NaN	NaN	NaN
968.492967220256	2.01608731366287	2	object_onset	1	switch	1.27914033631967	5	16	-11	n/a	NaN	NaN	NaN	NaN	NaN	NaN	NaN	NaN	NaN	NaN	NaN
973.591694935923	2.01617947340128	8	object_onset	2	switch	1.20747670784989	16	44	-28	n/a	NaN	NaN	NaN	NaN	NaN	NaN	NaN	NaN	NaN	NaN	NaN
978.557135995448	2.01614779350348	9	object_onset	2	stay	0.36	19	71	-52	n/a	NaN	NaN	NaN	NaN	NaN	NaN	NaN	NaN	NaN	NaN	NaN
985.655312032701	2.01615099348419	11	object_onset	2	stay	0.814984662432368	100	3	97	n/a	NaN	NaN	NaN	NaN	NaN	NaN	NaN	NaN	NaN	NaN	NaN
991.537197172875	4.98213253145514	11	choice	2	n/a	NaN	NaN	NaN	NaN	d	1	6	0.569209978830308	0.9	55.5141933777059	86.800615681217	2.25042862220399	40.5840886391862	996.498732643653	4.96153547077847	1
1001.26806194798	2.01604667378706	10	object_onset	2	stay	0.524785670536077	50	5	45	n/a	NaN	NaN	NaN	NaN	NaN	NaN	NaN	NaN	NaN	NaN	NaN
1007.06660844816	2.01612763355661	8	object_onset	2	stay	0.569209978830308	16	44	-28	n/a	NaN	NaN	NaN	NaN	NaN	NaN	NaN	NaN	NaN	NaN	NaN
1013.26492915701	3.91576792257547	8	choice	2	n/a	NaN	NaN	NaN	NaN	v	10	9	0.569209978830308	0.36	34.0707805259635	2.84227419095423	38.7004681213976	27.2811430344322	1017.17172718543	3.90679802841623	-1
1020.0632986977	2.01614907348994	2	object_onset	2	stay	1.20747670784989	16	5	11	n/a	NaN	NaN	NaN	NaN	NaN	NaN	NaN	NaN	NaN	NaN	NaN
1025.14534166142	2.01616059345542	6	object_onset	1	switch	0.524785670536077	44	13	31	n/a	NaN	NaN	NaN	NaN	NaN	NaN	NaN	NaN	NaN	NaN	NaN
1031.16049649777	2.01616475344053	9	object_onset	1	stay	0.458911756223351	71	19	52	n/a	NaN	NaN	NaN	NaN	NaN	NaN	NaN	NaN	NaN	NaN	NaN
1037.79219387849	2.01612347355695	9	object_onset	1	stay	0	71	19	52	n/a	NaN	NaN	NaN	NaN	NaN	NaN	NaN	NaN	NaN	NaN	NaN
1044.62368780377	2.01623931323411	12	object_onset	1	stay	0.458911756223351	18	72	-54	n/a	NaN	NaN	NaN	NaN	NaN	NaN	NaN	NaN	NaN	NaN	NaN
1049.75583622319	2.01612667355221	4	object_onset	1	stay	1.08747413762351	14	2	12	n/a	NaN	NaN	NaN	NaN	NaN	NaN	NaN	NaN	NaN	NaN	NaN
1054.87117189102	2.01618843337928	5	object_onset	1	stay	0.524785670536077	71	3	68	n/a	NaN	NaN	NaN	NaN	NaN	NaN	NaN	NaN	NaN	NaN	NaN
1060.13652504681	2.01614075351972	3	object_onset	2	switch	0.814984662432368	50	11	39	n/a	NaN	NaN	NaN	NaN	NaN	NaN	NaN	NaN	NaN	NaN	NaN
1065.38520465061	2.01607483370753	2	object_onset	1	switch	0.36	5	16	-11	n/a	NaN	NaN	NaN	NaN	NaN	NaN	NaN	NaN	NaN	NaN	NaN
1073.01662491212	2.01616763343918	5	object_onset	1	stay	0.853814968245462	71	3	68	n/a	NaN	NaN	NaN	NaN	NaN	NaN	NaN	NaN	NaN	NaN	NaN
1079.16504528467	2.01616763343918	11	object_onset	2	switch	1.20747670784989	100	3	97	n/a	NaN	NaN	NaN	NaN	NaN	NaN	NaN	NaN	NaN	NaN	NaN
1086.32979873018	2.01626715315797	7	object_onset	2	stay	1.26	2	90	-88	n/a	NaN	NaN	NaN	NaN	NaN	NaN	NaN	NaN	NaN	NaN	NaN
1091.66189793374	2.0161631534429	5	object_onset	1	switch	0.569209978830308	71	3	68	n/a	NaN	NaN	NaN	NaN	NaN	NaN	NaN	NaN	NaN	NaN	NaN
1096.52736296119	2.01611515358672	6	object_onset	2	switch	0.36	13	44	-31	n/a	NaN	NaN	NaN	NaN	NaN	NaN	NaN	NaN	NaN	NaN	NaN
1102.59250773359	2.01614939348656	12	object_onset	1	switch	0.648999229583518	18	72	-54	n/a	NaN	NaN	NaN	NaN	NaN	NaN	NaN	NaN	NaN	NaN	NaN
1108.82422738623	2.01614843349671	4	object_onset	2	switch	1.08747413762351	2	14	-12	n/a	NaN	NaN	NaN	NaN	NaN	NaN	NaN	NaN	NaN	NaN	NaN
1115.08932614274	2.01618459339079	12	object_onset	1	switch	1.08747413762351	18	72	-54	n/a	NaN	NaN	NaN	NaN	NaN	NaN	NaN	NaN	NaN	NaN	NaN
