onset	duration	object	trial_type	map	stayswitch	distance	value	counterfactual_value	value_diff	choicetype	object1	object2	chosen_distance	unchosen_distance	chosen_value	unchosen_value	counterfactual_chosen_value	counterfactual_unchosen_value	button	response_time	cr
8.80530717456713	2.01613560272381	11	object_onset	1	n/a	NaN	NaN	NaN	NaN	n/a	NaN	NaN	NaN	NaN	NaN	NaN	NaN	NaN	NaN	NaN	NaN
13.9040302205831	2.01615384267643	3	object_onset	2	switch	0.524785670536077	50	11	39	n/a	NaN	NaN	NaN	NaN	NaN	NaN	NaN	NaN	NaN	NaN	NaN
21.6686940705404	2.01607992267236	5	object_onset	1	switch	0.814984662432368	71	3	68	n/a	NaN	NaN	NaN	NaN	NaN	NaN	NaN	NaN	NaN	NaN	NaN
29.0835458389483	2.01597048342228	12	object_onset	1	stay	0.9	18	72	-54	n/a	NaN	NaN	NaN	NaN	NaN	NaN	NaN	NaN	NaN	NaN	NaN
34.065526405815	2.01620120182633	6	object_onset	2	switch	0.648999229583518	13	44	-31	n/a	NaN	NaN	NaN	NaN	NaN	NaN	NaN	NaN	NaN	NaN	NaN
39.2976120114326	2.01614008285105	7	object_onset	1	switch	0.763675323681471	90	2	88	n/a	NaN	NaN	NaN	NaN	NaN	NaN	NaN	NaN	NaN	NaN	NaN
44.646185378544	2.01618584245443	8	object_onset	1	stay	0.524785670536077	44	16	28	n/a	NaN	NaN	NaN	NaN	NaN	NaN	NaN	NaN	NaN	NaN	NaN
51.5777901867405	2.01615960244089	10	object_onset	2	switch	0.569209978830308	50	5	45	n/a	NaN	NaN	NaN	NaN	NaN	NaN	NaN	NaN	NaN	NaN	NaN
56.4764297134243	2.01615960244089	5	object_onset	2	stay	1.27914033631967	3	71	-68	n/a	NaN	NaN	NaN	NaN	NaN	NaN	NaN	NaN	NaN	NaN	NaN
61.6085311593488	2.01615320239216	8	object_onset	1	switch	0.853814968245462	44	16	28	n/a	NaN	NaN	NaN	NaN	NaN	NaN	NaN	NaN	NaN	NaN	NaN
66.9405506853946	2.01603320334107	8	object_onset	2	switch	0	16	44	-28	n/a	NaN	NaN	NaN	NaN	NaN	NaN	NaN	NaN	NaN	NaN	NaN
70.9894909304567	96.5754705178551	8	choice	2	n/a	NaN	NaN	NaN	NaN	d	1	4	1.26	1.27914033631967	14.4890326431482	28.3236873757602	29.5679244665883	42.8345172613902	167.551808871329	96.5623179408722	1
171.397322893143	2.01611512247473	4	object_onset	1	switch	1.26	14	2	12	n/a	NaN	NaN	NaN	NaN	NaN	NaN	NaN	NaN	NaN	NaN	NaN
176.829251379706	2.01613112259656	5	object_onset	2	switch	0.524785670536077	3	71	-68	n/a	NaN	NaN	NaN	NaN	NaN	NaN	NaN	NaN	NaN	NaN	NaN
181.761341945734	2.01614808244631	1	object_onset	2	stay	1.26	44	1	43	n/a	NaN	NaN	NaN	NaN	NaN	NaN	NaN	NaN	NaN	NaN	NaN
188.559590914287	2.01606968278065	8	object_onset	2	stay	1.27914033631967	16	44	-28	n/a	NaN	NaN	NaN	NaN	NaN	NaN	NaN	NaN	NaN	NaN	NaN
194.791362921707	2.01615544222295	8	object_onset	1	switch	0	44	16	28	n/a	NaN	NaN	NaN	NaN	NaN	NaN	NaN	NaN	NaN	NaN	NaN
201.223038289696	2.01614296250045	6	object_onset	1	stay	0.814984662432368	44	13	31	n/a	NaN	NaN	NaN	NaN	NaN	NaN	NaN	NaN	NaN	NaN	NaN
208.254609018099	2.01612984249368	8	object_onset	2	switch	0.814984662432368	16	44	-28	n/a	NaN	NaN	NaN	NaN	NaN	NaN	NaN	NaN	NaN	NaN	NaN
214.403025585692	2.01618136232719	4	object_onset	2	stay	1.26	2	14	-12	n/a	NaN	NaN	NaN	NaN	NaN	NaN	NaN	NaN	NaN	NaN	NaN
220.534712953493	2.01626648195088	10	object_onset	2	stay	1.53792067415716	50	5	45	n/a	NaN	NaN	NaN	NaN	NaN	NaN	NaN	NaN	NaN	NaN	NaN
225.533551359084	2.01615512231365	1	object_onset	1	switch	1.08747413762351	1	44	-43	n/a	NaN	NaN	NaN	NaN	NaN	NaN	NaN	NaN	NaN	NaN	NaN
230.49891600525	12.8967998553999	1	choice	1	n/a	NaN	NaN	NaN	NaN	d	9	10	1.08747413762351	1.08747413762351	4.13404913999263	70.1156602958224	5.74709315020331	25.481413184806	243.38683302328	12.8879170180298	1
246.311609704513	2.01599768316373	6	object_onset	1	stay	0.9	44	13	31	n/a	NaN	NaN	NaN	NaN	NaN	NaN	NaN	NaN	NaN	NaN	NaN
252.543366991915	2.01611032290384	3	object_onset	2	switch	0.458911756223351	50	11	39	n/a	NaN	NaN	NaN	NaN	NaN	NaN	NaN	NaN	NaN	NaN	NaN
258.891707079951	2.01605624286458	4	object_onset	1	switch	0.763675323681471	14	2	12	n/a	NaN	NaN	NaN	NaN	NaN	NaN	NaN	NaN	NaN	NaN	NaN
263.907135165762	2.01617144234478	12	object_onset	2	switch	1.08747413762351	72	18	54	n/a	NaN	NaN	NaN	NaN	NaN	NaN	NaN	NaN	NaN	NaN	NaN
271.355208215304	2.01607544254512	5	object_onset	1	switch	0.9	71	3	68	n/a	NaN	NaN	NaN	NaN	NaN	NaN	NaN	NaN	NaN	NaN	NaN
277.003800621722	7.89799120975658	5	choice	1	n/a	NaN	NaN	NaN	NaN	d	12	7	0.569209978830308	0.9	19.4955359903515	52.9909262905921	0.72290938457687	69.7128832525924	284.880169215146	7.87636859342456	1
288.267457596492	2.01630808180198	3	object_onset	1	stay	0.814984662432368	11	50	-39	n/a	NaN	NaN	NaN	NaN	NaN	NaN	NaN	NaN	NaN	NaN	NaN
296.048959765118	2.0160325630568	4	object_onset	2	switch	0.763675323681471	2	14	-12	n/a	NaN	NaN	NaN	NaN	NaN	NaN	NaN	NaN	NaN	NaN	NaN
301.41425497178	2.01601944305003	2	object_onset	1	switch	0.569209978830308	5	16	-11	n/a	NaN	NaN	NaN	NaN	NaN	NaN	NaN	NaN	NaN	NaN	NaN
307.962478580419	2.01626968150958	9	object_onset	2	switch	0.9	19	71	-52	n/a	NaN	NaN	NaN	NaN	NaN	NaN	NaN	NaN	NaN	NaN	NaN
314.9607851482	2.01615128247067	1	object_onset	1	switch	1.08747413762351	1	44	-43	n/a	NaN	NaN	NaN	NaN	NaN	NaN	NaN	NaN	NaN	NaN	NaN
320.109484274406	2.01613336289302	10	object_onset	2	switch	1.08747413762351	50	5	45	n/a	NaN	NaN	NaN	NaN	NaN	NaN	NaN	NaN	NaN	NaN	NaN
326.657838762738	2.01615416212007	6	object_onset	2	stay	1.08747413762351	13	44	-31	n/a	NaN	NaN	NaN	NaN	NaN	NaN	NaN	NaN	NaN	NaN	NaN
332.572969730012	2.01615736214444	2	object_onset	1	switch	0.524785670536077	5	16	-11	n/a	NaN	NaN	NaN	NaN	NaN	NaN	NaN	NaN	NaN	NaN	NaN
338.588103737216	2.01615352230147	1	object_onset	2	switch	0.524785670536077	44	1	43	n/a	NaN	NaN	NaN	NaN	NaN	NaN	NaN	NaN	NaN	NaN	NaN
343.153611742891	5.21535160625353	1	choice	2	n/a	NaN	NaN	NaN	NaN	d	8	11	0.569209978830308	1.27914033631967	55.5141933777059	28.3236873757602	2.25042862220399	42.8345172613902	348.356144210789	5.20253246789798	1
351.384845832828	2.01616568258032	9	object_onset	2	stay	1.08747413762351	19	71	-52	n/a	NaN	NaN	NaN	NaN	NaN	NaN	NaN	NaN	NaN	NaN	NaN
358.366357281804	9.11428969120607	9	choice	2	n/a	NaN	NaN	NaN	NaN	d	12	4	0.458911756223351	0.9	53.3206308004961	17.3313068341025	52.9909262905921	56.8490675010204	367.450567117427	9.08420983562246	1
372.796102098655	2.01605560304597	8	object_onset	2	stay	0.36	16	44	-28	n/a	NaN	NaN	NaN	NaN	NaN	NaN	NaN	NaN	NaN	NaN	NaN
378.044744745363	2.01614648243412	1	object_onset	2	stay	1.27914033631967	44	1	43	n/a	NaN	NaN	NaN	NaN	NaN	NaN	NaN	NaN	NaN	NaN	NaN
385.176250674296	2.01619864208624	12	object_onset	2	stay	0.763675323681471	72	18	54	n/a	NaN	NaN	NaN	NaN	NaN	NaN	NaN	NaN	NaN	NaN	NaN
390.691556360573	2.01614968245849	10	object_onset	2	stay	0.458911756223351	50	5	45	n/a	NaN	NaN	NaN	NaN	NaN	NaN	NaN	NaN	NaN	NaN	NaN
396.023385487963	6.21508920751512	10	choice	2	n/a	NaN	NaN	NaN	NaN	d	4	8	0.569209978830308	1.53792067415716	34.0707805259635	48.5598131691118	38.7004681213976	9.13254365480929	402.204247019719	6.18086153175682	1
405.354453018866	2.01615960244089	6	object_onset	1	switch	1.08747413762351	44	13	31	n/a	NaN	NaN	NaN	NaN	NaN	NaN	NaN	NaN	NaN	NaN	NaN
410.669705585577	2.01614840235561	4	object_onset	2	switch	0.458911756223351	2	14	-12	n/a	NaN	NaN	NaN	NaN	NaN	NaN	NaN	NaN	NaN	NaN	NaN
415.668496311177	2.01615992281586	7	object_onset	2	stay	1.08747413762351	2	90	-88	n/a	NaN	NaN	NaN	NaN	NaN	NaN	NaN	NaN	NaN	NaN	NaN
420.51730855694	2.01615224266425	2	object_onset	2	stay	1.27914033631967	16	5	11	n/a	NaN	NaN	NaN	NaN	NaN	NaN	NaN	NaN	NaN	NaN	NaN
425.116133522708	66.6497159213759	2	choice	2	n/a	NaN	NaN	NaN	NaN	d	9	12	0.9	0.814984662432368	2.84227419095423	56.1629049914503	65.9816111558297	12.9906848652376	491.758740358055	66.6426068353467	-1
494.715105367824	2.01615352230147	3	object_onset	1	switch	0.36	11	50	-39	n/a	NaN	NaN	NaN	NaN	NaN	NaN	NaN	NaN	NaN	NaN	NaN
500.680217215326	2.01615224219859	2	object_onset	2	switch	0.36	16	5	11	n/a	NaN	NaN	NaN	NaN	NaN	NaN	NaN	NaN	NaN	NaN	NaN
508.178349864203	2.01603352278471	10	object_onset	1	switch	1.26	5	50	-45	n/a	NaN	NaN	NaN	NaN	NaN	NaN	NaN	NaN	NaN	NaN	NaN
513.177054190077	2.01614616252482	10	object_onset	1	stay	0	5	50	-45	n/a	NaN	NaN	NaN	NaN	NaN	NaN	NaN	NaN	NaN	NaN	NaN
520.675170519389	2.01616376219317	1	object_onset	2	switch	1.08747413762351	44	1	43	n/a	NaN	NaN	NaN	NaN	NaN	NaN	NaN	NaN	NaN	NaN	NaN
525.773851005826	2.01613720227033	3	object_onset	1	switch	0.458911756223351	11	50	-39	n/a	NaN	NaN	NaN	NaN	NaN	NaN	NaN	NaN	NaN	NaN	NaN
531.589029172901	2.01615512231365	3	object_onset	1	stay	0	11	50	-39	n/a	NaN	NaN	NaN	NaN	NaN	NaN	NaN	NaN	NaN	NaN	NaN
537.48753366014	2.01615480240434	9	object_onset	2	switch	0.648999229583518	19	71	-52	n/a	NaN	NaN	NaN	NaN	NaN	NaN	NaN	NaN	NaN	NaN	NaN
544.835711828899	2.01613976247609	7	object_onset	1	switch	0.458911756223351	90	2	88	n/a	NaN	NaN	NaN	NaN	NaN	NaN	NaN	NaN	NaN	NaN	NaN
551.717274957336	2.01604760298505	1	object_onset	2	switch	1.53792067415716	44	1	43	n/a	NaN	NaN	NaN	NaN	NaN	NaN	NaN	NaN	NaN	NaN	NaN
558.965395046398	2.01615768251941	10	object_onset	1	switch	1.08747413762351	5	50	-45	n/a	NaN	NaN	NaN	NaN	NaN	NaN	NaN	NaN	NaN	NaN	NaN
566.763452015352	2.01615320285782	5	object_onset	2	switch	1.27914033631967	3	71	-68	n/a	NaN	NaN	NaN	NaN	NaN	NaN	NaN	NaN	NaN	NaN	NaN
574.111589864362	2.016115762759	7	object_onset	1	switch	0.569209978830308	90	2	88	n/a	NaN	NaN	NaN	NaN	NaN	NaN	NaN	NaN	NaN	NaN	NaN
580.4932613126	2.01616088254377	9	object_onset	2	switch	0.458911756223351	19	71	-52	n/a	NaN	NaN	NaN	NaN	NaN	NaN	NaN	NaN	NaN	NaN	NaN
586.308462519664	2.01614552224055	3	object_onset	1	switch	0.648999229583518	11	50	-39	n/a	NaN	NaN	NaN	NaN	NaN	NaN	NaN	NaN	NaN	NaN	NaN
592.8401649273	2.01614456251264	10	object_onset	1	stay	0.9	5	50	-45	n/a	NaN	NaN	NaN	NaN	NaN	NaN	NaN	NaN	NaN	NaN	NaN
597.638939333148	17.4622038616799	10	choice	1	n/a	NaN	NaN	NaN	NaN	d	6	1	1.08747413762351	1.08747413762351	4.13404913999263	38.7004681213976	5.74709315020331	37.0335154537144	615.09580754023	17.4568682070822	1
618.933672318701	2.01600696286187	6	object_onset	1	stay	1.08747413762351	44	13	31	n/a	NaN	NaN	NaN	NaN	NaN	NaN	NaN	NaN	NaN	NaN	NaN
625.781774487812	2.01617144234478	9	object_onset	2	switch	0.458911756223351	19	71	-52	n/a	NaN	NaN	NaN	NaN	NaN	NaN	NaN	NaN	NaN	NaN	NaN
631.4469770547	2.01618776237592	8	object_onset	1	switch	0.36	44	16	28	n/a	NaN	NaN	NaN	NaN	NaN	NaN	NaN	NaN	NaN	NaN	NaN
637.678610822652	6.98169992817566	8	choice	1	n/a	NaN	NaN	NaN	NaN	d	2	12	0.524785670536077	1.20747670784989	25.7097832561599	38.7004681213976	56.1629049914503	0	644.652695427183	6.97408460453153	1
649.875613717362	2.01615288248286	1	object_onset	2	switch	1.27914033631967	44	1	43	n/a	NaN	NaN	NaN	NaN	NaN	NaN	NaN	NaN	NaN	NaN	NaN
657.373705726583	2.01619416195899	3	object_onset	2	stay	0.458911756223351	50	11	39	n/a	NaN	NaN	NaN	NaN	NaN	NaN	NaN	NaN	NaN	NaN	NaN
664.321978294756	2.01611224235967	11	object_onset	2	stay	0.524785670536077	100	3	97	n/a	NaN	NaN	NaN	NaN	NaN	NaN	NaN	NaN	NaN	NaN	NaN
670.803634542506	2.01618520263582	10	object_onset	1	switch	0.524785670536077	5	50	-45	n/a	NaN	NaN	NaN	NaN	NaN	NaN	NaN	NaN	NaN	NaN	NaN
675.702385428827	2.01615672232583	10	object_onset	2	switch	0	50	5	45	n/a	NaN	NaN	NaN	NaN	NaN	NaN	NaN	NaN	NaN	NaN	NaN
681.550930475816	2.01606872258708	12	object_onset	2	stay	0.458911756223351	72	18	54	n/a	NaN	NaN	NaN	NaN	NaN	NaN	NaN	NaN	NaN	NaN	NaN
687.615937523544	2.01627352181822	3	object_onset	2	stay	0.458911756223351	50	11	39	n/a	NaN	NaN	NaN	NaN	NaN	NaN	NaN	NaN	NaN	NaN	NaN
692.398165129125	6.81493912823498	3	choice	2	n/a	NaN	NaN	NaN	NaN	d	10	11	0.524785670536077	0.9	49.7671002275025	2.1316282072803e-14	7.99033392515088	6.10671340736224	699.195035543758	6.7968704146333	1
702.129046420567	2.01613976247609	4	object_onset	2	stay	0.763675323681471	2	14	-12	n/a	NaN	NaN	NaN	NaN	NaN	NaN	NaN	NaN	NaN	NaN	NaN
708.160831868183	2.01614808244631	6	object_onset	2	stay	0.458911756223351	13	44	-31	n/a	NaN	NaN	NaN	NaN	NaN	NaN	NaN	NaN	NaN	NaN	NaN
714.842427636497	2.01608504261822	10	object_onset	1	switch	1.08747413762351	5	50	-45	n/a	NaN	NaN	NaN	NaN	NaN	NaN	NaN	NaN	NaN	NaN	NaN
719.907811642624	2.01615480240434	1	object_onset	1	stay	1.08747413762351	1	44	-43	n/a	NaN	NaN	NaN	NaN	NaN	NaN	NaN	NaN	NaN	NaN	NaN
727.639181572013	2.01615544268861	9	object_onset	1	stay	1.08747413762351	71	19	52	n/a	NaN	NaN	NaN	NaN	NaN	NaN	NaN	NaN	NaN	NaN	NaN
734.204211500008	2.01614232221618	2	object_onset	1	stay	0.9	5	16	-11	n/a	NaN	NaN	NaN	NaN	NaN	NaN	NaN	NaN	NaN	NaN	NaN
740.002703667153	2.01615320239216	11	object_onset	1	stay	0.853814968245462	3	100	-97	n/a	NaN	NaN	NaN	NaN	NaN	NaN	NaN	NaN	NaN	NaN	NaN
744.801511032972	9.91414185194299	11	choice	1	n/a	NaN	NaN	NaN	NaN	d	5	3	0.524785670536077	1.20747670784989	7.99033392515088	67.8652316736184	49.7671002275025	97.3878590146082	754.695189303253	9.89367827028036	1
758.381359769497	2.01614840282127	1	object_onset	1	stay	0.569209978830308	1	44	-43	n/a	NaN	NaN	NaN	NaN	NaN	NaN	NaN	NaN	NaN	NaN	NaN
764.879707457498	2.01608088286594	5	object_onset	1	stay	1.26	71	3	68	n/a	NaN	NaN	NaN	NaN	NaN	NaN	NaN	NaN	NaN	NaN	NaN
770.111751143821	2.0160012030974	12	object_onset	2	switch	0.9	72	18	54	n/a	NaN	NaN	NaN	NaN	NaN	NaN	NaN	NaN	NaN	NaN	NaN
775.477050190326	12.1802055351436	12	choice	2	n/a	NaN	NaN	NaN	NaN	d	1	5	0.763675323681471	0.9	27.8392176156901	69.7128832525924	17.1247340052303	52.9909262905921	787.638165576849	12.1611153865233	1
790.989763569087	2.016051763203	4	object_onset	1	switch	1.08747413762351	14	2	12	n/a	NaN	NaN	NaN	NaN	NaN	NaN	NaN	NaN	NaN	NaN	NaN
797.221530457027	2.01610488258302	8	object_onset	1	stay	1.26	44	16	28	n/a	NaN	NaN	NaN	NaN	NaN	NaN	NaN	NaN	NaN	NaN	NaN
802.486814623233	2.01607288327068	7	object_onset	1	stay	0.524785670536077	90	2	88	n/a	NaN	NaN	NaN	NaN	NaN	NaN	NaN	NaN	NaN	NaN	NaN
809.335061751772	6.93158048857003	7	choice	1	n/a	NaN	NaN	NaN	NaN	d	4	5	0.569209978830308	1.08747413762351	19.4955359903515	76.3446034913719	0.72290938457687	0.216144997429269	816.249486802612	6.91442505083978	1
819.615794164129	2.01615832280368	12	object_onset	2	switch	0.9	72	18	54	n/a	NaN	NaN	NaN	NaN	NaN	NaN	NaN	NaN	NaN	NaN	NaN
825.081094010733	2.01616280246526	5	object_onset	2	stay	0.9	3	71	-68	n/a	NaN	NaN	NaN	NaN	NaN	NaN	NaN	NaN	NaN	NaN	NaN
830.596362577751	2.01615864224732	2	object_onset	2	stay	0.853814968245462	16	5	11	n/a	NaN	NaN	NaN	NaN	NaN	NaN	NaN	NaN	NaN	NaN	NaN
835.878319624346	2.01618744200096	7	object_onset	2	stay	1.27914033631967	2	90	-88	n/a	NaN	NaN	NaN	NaN	NaN	NaN	NaN	NaN	NaN	NaN	NaN
841.376926190685	2.01615576259792	12	object_onset	2	stay	0.9	72	18	54	n/a	NaN	NaN	NaN	NaN	NaN	NaN	NaN	NaN	NaN	NaN	NaN
846.65894531738	2.01614872226492	3	object_onset	1	switch	0.458911756223351	11	50	-39	n/a	NaN	NaN	NaN	NaN	NaN	NaN	NaN	NaN	NaN	NaN	NaN
852.973861885723	8.43133584968746	3	choice	1	n/a	NaN	NaN	NaN	NaN	d	8	2	0.36	0.9	6.10671340736224	32.5937547140353	34.0707805259635	34.0707805259635	861.393400991801	8.41953910607845	1
866.104022540618	2.01611704286188	5	object_onset	2	switch	0.814984662432368	3	71	-68	n/a	NaN	NaN	NaN	NaN	NaN	NaN	NaN	NaN	NaN	NaN	NaN
870.986090946943	32.175114359241	5	choice	2	n/a	NaN	NaN	NaN	NaN	d	3	2	0.814984662432368	0.853814968245462	47.6207587871056	13.5499782611421	59.8748977484675	65.9816111558298	903.154262619559	32.1681716726162	1
907.760077951942	2.0161599223502	6	object_onset	2	stay	0.36	13	44	-31	n/a	NaN	NaN	NaN	NaN	NaN	NaN	NaN	NaN	NaN	NaN	NaN
912.14226363739	18.4786402625032	6	choice	2	n/a	NaN	NaN	NaN	NaN	d	10	9	0.458911756223351	1.08747413762351	5.80500911870512	37.0335154537144	27.2811430344321	38.7004681213976	930.601773431525	18.4595097941346	1
936.069549106527	2.01611928222701	11	object_onset	2	stay	0.9	100	3	97	n/a	NaN	NaN	NaN	NaN	NaN	NaN	NaN	NaN	NaN	NaN	NaN
942.551123114768	2.01626680186018	4	object_onset	1	switch	1.27914033631967	14	2	12	n/a	NaN	NaN	NaN	NaN	NaN	NaN	NaN	NaN	NaN	NaN	NaN
947.666566080414	2.0161893623881	6	object_onset	1	stay	0.458911756223351	44	13	31	n/a	NaN	NaN	NaN	NaN	NaN	NaN	NaN	NaN	NaN	NaN	NaN
951.882192885503	7.84785257047042	6	choice	1	n/a	NaN	NaN	NaN	NaN	d	7	10	0.763675323681471	1.08747413762351	46.7766790247836	38.7004681213976	11.3101527179681	37.0335154537144	959.690750284586	7.80855739908293	1
962.745981699321	2.01614072266966	7	object_onset	1	stay	0.763675323681471	90	2	88	n/a	NaN	NaN	NaN	NaN	NaN	NaN	NaN	NaN	NaN	NaN	NaN
968.894503226504	2.01607672264799	4	object_onset	2	switch	1.08747413762351	2	14	-12	n/a	NaN	NaN	NaN	NaN	NaN	NaN	NaN	NaN	NaN	NaN	NaN
974.209828753024	2.01603896310553	11	object_onset	2	stay	1.27914033631967	100	3	97	n/a	NaN	NaN	NaN	NaN	NaN	NaN	NaN	NaN	NaN	NaN	NaN
979.258536359295	2.016140722204	12	object_onset	1	switch	0.36	18	72	-54	n/a	NaN	NaN	NaN	NaN	NaN	NaN	NaN	NaN	NaN	NaN	NaN
984.40720828576	2.01616824232042	9	object_onset	1	stay	0.458911756223351	71	19	52	n/a	NaN	NaN	NaN	NaN	NaN	NaN	NaN	NaN	NaN	NaN	NaN
989.872503011953	2.01615320285782	11	object_onset	2	switch	0.814984662432368	100	3	97	n/a	NaN	NaN	NaN	NaN	NaN	NaN	NaN	NaN	NaN	NaN	NaN
997.587204861455	2.01615000236779	6	object_onset	2	stay	0.9	13	44	-31	n/a	NaN	NaN	NaN	NaN	NaN	NaN	NaN	NaN	NaN	NaN	NaN
1004.1522424696	2.01612344244495	11	object_onset	1	switch	0.9	3	100	-97	n/a	NaN	NaN	NaN	NaN	NaN	NaN	NaN	NaN	NaN	NaN	NaN
1009.05098951561	2.01616248209029	7	object_onset	2	switch	1.26	2	90	-88	n/a	NaN	NaN	NaN	NaN	NaN	NaN	NaN	NaN	NaN	NaN	NaN
1014.28302968154	18.7285062633455	7	choice	2	n/a	NaN	NaN	NaN	NaN	d	11	6	0.763675323681471	1.26	11.3101527179681	98.110768399185	46.7766790247836	87.3607676639699	1032.99881312577	18.7157834442332	1
1036.21071098885	2.0160453626886	11	object_onset	1	switch	1.26	3	100	-97	n/a	NaN	NaN	NaN	NaN	NaN	NaN	NaN	NaN	NaN	NaN	NaN
1042.7423109971	2.01623992202803	9	object_onset	1	stay	0.814984662432368	71	19	52	n/a	NaN	NaN	NaN	NaN	NaN	NaN	NaN	NaN	NaN	NaN	NaN
1047.97431788361	2.01622008206323	1	object_onset	1	stay	1.08747413762351	1	44	-43	n/a	NaN	NaN	NaN	NaN	NaN	NaN	NaN	NaN	NaN	NaN	NaN
1053.83959661005	2.0161570427008	2	object_onset	2	switch	0.524785670536077	16	5	11	n/a	NaN	NaN	NaN	NaN	NaN	NaN	NaN	NaN	NaN	NaN	NaN
1059.17143629724	2.01621560240164	9	object_onset	1	switch	0.9	71	19	52	n/a	NaN	NaN	NaN	NaN	NaN	NaN	NaN	NaN	NaN	NaN	NaN
1064.02035030257	2.01614520233124	7	object_onset	1	stay	0.458911756223351	90	2	88	n/a	NaN	NaN	NaN	NaN	NaN	NaN	NaN	NaN	NaN	NaN	NaN
1071.35181943141	2.0161160826683	5	object_onset	2	switch	0.569209978830308	3	71	-68	n/a	NaN	NaN	NaN	NaN	NaN	NaN	NaN	NaN	NaN	NaN	NaN
1076.70042831823	2.01618520217016	3	object_onset	2	stay	0.814984662432368	50	11	39	n/a	NaN	NaN	NaN	NaN	NaN	NaN	NaN	NaN	NaN	NaN	NaN
1083.81519928714	2.0162306423299	2	object_onset	2	stay	0.36	16	5	11	n/a	NaN	NaN	NaN	NaN	NaN	NaN	NaN	NaN	NaN	NaN	NaN
1091.0467876154	2.01617624238133	1	object_onset	1	switch	0.524785670536077	1	44	-43	n/a	NaN	NaN	NaN	NaN	NaN	NaN	NaN	NaN	NaN	NaN	NaN
1097.76164946426	2.01626296201721	11	object_onset	1	stay	0.569209978830308	3	100	-97	n/a	NaN	NaN	NaN	NaN	NaN	NaN	NaN	NaN	NaN	NaN	NaN
1102.92714275001	2.01612760266289	4	object_onset	1	stay	1.27914033631967	14	2	12	n/a	NaN	NaN	NaN	NaN	NaN	NaN	NaN	NaN	NaN	NaN	NaN
1108.3757466767	2.01602520281449	7	object_onset	2	switch	1.08747413762351	2	90	-88	n/a	NaN	NaN	NaN	NaN	NaN	NaN	NaN	NaN	NaN	NaN	NaN
1114.55746804411	2.01618744246662	12	object_onset	1	switch	0.9	18	72	-54	n/a	NaN	NaN	NaN	NaN	NaN	NaN	NaN	NaN	NaN	NaN	NaN
1120.58917957218	2.01626616204157	11	object_onset	1	stay	0.36	3	100	-97	n/a	NaN	NaN	NaN	NaN	NaN	NaN	NaN	NaN	NaN	NaN	NaN
1128.15393494116	2.01625944208354	2	object_onset	1	stay	0.853814968245462	5	16	-11	n/a	NaN	NaN	NaN	NaN	NaN	NaN	NaN	NaN	NaN	NaN	NaN
1135.2688988694	2.01612664246932	8	object_onset	1	stay	1.20747670784989	44	16	28	n/a	NaN	NaN	NaN	NaN	NaN	NaN	NaN	NaN	NaN	NaN	NaN
1141.03410223639	2.01615224266425	7	object_onset	2	switch	0.524785670536077	2	90	-88	n/a	NaN	NaN	NaN	NaN	NaN	NaN	NaN	NaN	NaN	NaN	NaN
1146.24941576272	2.01617624238133	2	object_onset	1	switch	1.27914033631967	5	16	-11	n/a	NaN	NaN	NaN	NaN	NaN	NaN	NaN	NaN	NaN	NaN	NaN
1153.29761425173	2.01618744200096	8	object_onset	2	switch	1.20747670784989	16	44	-28	n/a	NaN	NaN	NaN	NaN	NaN	NaN	NaN	NaN	NaN	NaN	NaN
1158.51294601802	2.01615512231365	9	object_onset	2	stay	0.36	19	71	-52	n/a	NaN	NaN	NaN	NaN	NaN	NaN	NaN	NaN	NaN	NaN	NaN
1164.76136658574	2.0161602422595	11	object_onset	2	stay	0.814984662432368	100	3	97	n/a	NaN	NaN	NaN	NaN	NaN	NaN	NaN	NaN	NaN	NaN	NaN
1172.17614091467	2.01608184259385	10	object_onset	2	stay	0.524785670536077	50	5	45	n/a	NaN	NaN	NaN	NaN	NaN	NaN	NaN	NaN	NaN	NaN	NaN
1179.6076220437	2.0161506421864	8	object_onset	2	stay	0.569209978830308	16	44	-28	n/a	NaN	NaN	NaN	NaN	NaN	NaN	NaN	NaN	NaN	NaN	NaN
1185.78929573158	2.01620952226222	2	object_onset	2	stay	1.20747670784989	16	5	11	n/a	NaN	NaN	NaN	NaN	NaN	NaN	NaN	NaN	NaN	NaN	NaN
1190.95477365702	2.01607832312584	6	object_onset	1	switch	0.524785670536077	44	13	31	n/a	NaN	NaN	NaN	NaN	NaN	NaN	NaN	NaN	NaN	NaN	NaN
1196.83657870442	2.01615640241653	9	object_onset	1	stay	0.458911756223351	71	19	52	n/a	NaN	NaN	NaN	NaN	NaN	NaN	NaN	NaN	NaN	NaN	NaN
1204.16805135366	2.01615128247067	9	object_onset	1	stay	0	71	19	52	n/a	NaN	NaN	NaN	NaN	NaN	NaN	NaN	NaN	NaN	NaN	NaN
1210.83298256202	134.682350964751	9	choice	1	n/a	NaN	NaN	NaN	NaN	d	2	1	1.08747413762351	0.9	70.1156602958224	65.9816111558297	25.481413184806	2.84227419095423	1345.49386386946	134.660881307442	-1
1348.41469784966	2.01615512231365	12	object_onset	1	stay	0.458911756223351	18	72	-54	n/a	NaN	NaN	NaN	NaN	NaN	NaN	NaN	NaN	NaN	NaN	NaN
1352.81358361477	10.6639126534574	12	choice	1	n/a	NaN	NaN	NaN	NaN	d	6	9	0.458911756223351	0.648999229583518	52.9909262905921	25.70978325616	53.3206308004961	59.1256399192012	1363.46486848872	10.6512848739512	1
1368.3429666739	2.01603544317186	4	object_onset	1	stay	1.08747413762351	14	2	12	n/a	NaN	NaN	NaN	NaN	NaN	NaN	NaN	NaN	NaN	NaN	NaN
1372.62508371985	13.4799919361249	4	choice	1	n/a	NaN	NaN	NaN	NaN	d	11	3	0.763675323681471	1.27914033631967	3.02583024744705	11.0161641725979	48.5598131691118	98.3269133966143	1386.09826128837	13.4731775685214	1
1391.50372174243	2.01618104241788	5	object_onset	1	stay	0.524785670536077	71	3	68	n/a	NaN	NaN	NaN	NaN	NaN	NaN	NaN	NaN	NaN	NaN	NaN
1398.80187519128	2.01612952258438	3	object_onset	2	switch	0.814984662432368	50	11	39	n/a	NaN	NaN	NaN	NaN	NaN	NaN	NaN	NaN	NaN	NaN	NaN
1404.68370423838	2.01615288248286	2	object_onset	1	switch	0.36	5	16	-11	n/a	NaN	NaN	NaN	NaN	NaN	NaN	NaN	NaN	NaN	NaN	NaN
1411.11542248633	7.38146056886762	2	choice	1	n/a	NaN	NaN	NaN	NaN	d	5	8	0.853814968245462	1.20747670784989	65.9816111558298	38.7004681213976	13.5499782611421	0	1418.47704187036	7.36161938402802	1
1424.04536842229	2.01627096207812	5	object_onset	1	stay	0.853814968245462	71	3	68	n/a	NaN	NaN	NaN	NaN	NaN	NaN	NaN	NaN	NaN	NaN	NaN
1430.01059034932	2.01614968245849	11	object_onset	2	switch	1.20747670784989	100	3	97	n/a	NaN	NaN	NaN	NaN	NaN	NaN	NaN	NaN	NaN	NaN	NaN
1434.15942099504	24.0606899484992	11	choice	2	n/a	NaN	NaN	NaN	NaN	d	7	6	0.9	1.26	86.800615681217	98.110768399185	40.5840886391862	87.3607676639699	1458.20726204524	24.0478410501964	1
1462.75226902915	2.01614904263988	7	object_onset	2	stay	1.26	2	90	-88	n/a	NaN	NaN	NaN	NaN	NaN	NaN	NaN	NaN	NaN	NaN	NaN
1470.55031799851	2.01611096272245	5	object_onset	1	switch	0.569209978830308	71	3	68	n/a	NaN	NaN	NaN	NaN	NaN	NaN	NaN	NaN	NaN	NaN	NaN
1477.16527280677	2.01615128247067	6	object_onset	2	switch	0.36	13	44	-31	n/a	NaN	NaN	NaN	NaN	NaN	NaN	NaN	NaN	NaN	NaN	NaN
1482.8305307338	2.01616792241111	12	object_onset	1	switch	0.648999229583518	18	72	-54	n/a	NaN	NaN	NaN	NaN	NaN	NaN	NaN	NaN	NaN	NaN	NaN
1487.89588626008	2.01606264291331	4	object_onset	2	switch	1.08747413762351	2	14	-12	n/a	NaN	NaN	NaN	NaN	NaN	NaN	NaN	NaN	NaN	NaN	NaN
1493.41117530642	46.2881890167482	4	choice	2	n/a	NaN	NaN	NaN	NaN	d	3	7	0.763675323681471	1.08747413762351	48.5598131691118	0.216144997429269	3.02583024744705	76.3446034913719	1539.67807354545	46.2668982390314	1
1542.54864856647	2.01618968229741	12	object_onset	1	switch	1.08747413762351	18	72	-54	n/a	NaN	NaN	NaN	NaN	NaN	NaN	NaN	NaN	NaN	NaN	NaN
