onset	duration	map	object_left	object_right	decision	chosen_object	unchosen_object	chosen_value	unchosen_value	response_time	trial_type	button	warning_onset
10.5599563647993	1.28315337654203	2	7	1	1	7	1	1.88923160081495	44.4858066222941	1.25896078301594	choice	11.8431097413413	NaN
15.5088425430004	2.01613628910854	2	7	1	1	7	1	1.88923160081495	44.4858066222941	1.25896078301594	feedback	11.8431097413413	NaN
21.0906667059753	1.79966470459476	2	11	8	2	8	11	16.1621192465339	100	1.78859112598002	choice	22.8903314105701	NaN
25.2564087877981	2.01615548902191	2	11	8	2	8	11	16.1621192465339	100	1.78859112598002	feedback	22.8903314105701	NaN
29.4219223898835	1.6663369606249	2	10	11	2	11	10	100	50.2328997724974	1.64788227621466	choice	31.0882593505085	NaN
34.8206685043406	2.01612444897182	2	10	11	2	11	10	100	50.2328997724974	1.64788227621466	feedback	31.0882593505085	NaN
39.5527650187723	1.58293744060211	2	2	10	1	2	10	16.1621192465339	50.2328997724974	1.57530705537647	choice	41.1357024593744	NaN
43.5517845405266	2.0161353291478	2	2	10	1	2	10	16.1621192465339	50.2328997724974	1.57530705537647	feedback	41.1357024593744	NaN
47.1507689906284	1.23311763233505	2	9	2	1	9	2	19.0043934374881	16.1621192465339	1.21637430437841	choice	48.3838866229635	NaN
52.9827571532223	2.01612060889602	2	9	2	1	9	2	19.0043934374881	16.1621192465339	1.21637430437841	feedback	48.3838866229635	NaN
55.715398626402	1.68288220884278	2	8	5	2	5	8	2.61214098539182	16.1621192465339	1.66434848448262	choice	57.3982808352448	NaN
60.8974337968975	2.01612060912885	2	8	5	2	5	8	2.61214098539182	16.1621192465339	1.66434848448262	feedback	57.3982808352448	NaN
64.4298833345529	1.7661972490605	2	1	7	1	1	7	44.4858066222941	1.88923160081495	1.76135949837044	choice	66.1960805836134	NaN
69.0619234011974	2.01627324870788	2	1	7	1	1	7	44.4858066222941	1.88923160081495	1.76135949837044	feedback	66.1960805836134	NaN
72.1945506664924	1.29971014452167	2	9	4	2	4	9	1.67308660338568	19.0043934374881	1.2842548142653	choice	73.4942608110141	NaN
76.9933760126587	2.01611772924662	2	9	4	2	4	9	1.67308660338568	19.0043934374881	1.2842548142653	feedback	73.4942608110141	NaN
79.6760239819996	2.08280784101225	2	1	2	1	1	2	44.4858066222941	16.1621192465339	2.0776865708176	choice	81.7588318230119	NaN
85.8911339689512	2.0160425293725	2	1	2	1	1	2	44.4858066222941	16.1621192465339	2.0776865708176	feedback	81.7588318230119	NaN
88.8736792826094	1.43298124871217	2	11	1	1	11	1	100	44.4858066222941	1.41618992085569	choice	90.3066605313215	NaN
93.2559422287159	2.01615516887978	2	11	1	1	11	1	100	44.4858066222941	1.41618992085569	feedback	90.3066605313215	NaN
97.9047569828108	1.28301353659481	1	2	10	2	10	2	4.89356064113839	4.89356064113839	1.27721098787151	choice	99.1877705194056	95.4047569828108
101.95374696888	2.01615548902191	1	2	10	2	10	2	4.89356064113839	4.89356064113839	1.27721098787151	feedback	99.1877705194056	95.4047569828108
104.769706682302	1.06639347248711	1	3	10	1	3	10	11.0002740485006	4.89356064113839	1.05093366210349	choice	105.836100154789	NaN
110.73489906895	2.01610204926692	1	3	10	1	3	10	11.0002740485006	4.89356064113839	1.05093366210349	feedback	105.836100154789	NaN
114.98367715138	1.2166791614145	1	9	2	2	2	9	4.89356064113839	70.8751717969681	1.208513839636	choice	116.200356312795	NaN
118.849374689162	2.01627516886219	1	9	2	2	2	9	4.89356064113839	70.8751717969681	1.208513839636	feedback	116.200356312795	NaN
122.765175170964	1.1829887686763	1	2	12	2	12	2	17.884245506376	4.89356064113839	1.17346622678451	choice	123.94816393964	NaN
127.430663173087	2.01615260913968	1	2	12	2	12	2	17.884245506376	4.89356064113839	1.17346622678451	feedback	123.94816393964	NaN
130.513224294642	1.4995881607756	1	1	8	2	8	1	43.594028762536	0.759511501145757	1.48106883629225	choice	132.012812455418	NaN
134.84536093683	2.01622044900432	1	1	8	2	8	1	43.594028762536	0.759511501145757	1.48106883629225	feedback	132.012812455418	NaN
138.761137418682	1.83287360076793	1	4	3	1	4	3	14.0261042959477	11.0002740485006	1.81509027490392	choice	140.59401101945	NaN
142.976628844859	2.01625084877014	1	4	3	1	4	3	14.0261042959477	11.0002740485006	1.81509027490392	feedback	140.59401101945	NaN
145.909321454121	1.28299369663	1	8	7	2	7	8	90.3707077873196	43.594028762536	1.26932492293417	choice	147.192315150751	NaN
151.524559312966	2.01615228899755	1	8	7	2	7	8	90.3707077873196	43.594028762536	1.26932492293417	feedback	147.192315150751	NaN
156.290054803016	1.36632953677326	1	3	7	1	3	7	11.0002740485006	90.3707077873196	1.35379644087516	choice	157.656384339789	NaN
160.339035189012	2.01613340899348	1	3	7	1	3	7	11.0002740485006	90.3707077873196	1.35379644087516	feedback	157.656384339789	NaN
164.987909781048	1.41623600292951	1	10	6	2	6	10	43.594028762536	4.89356064113839	1.40255474927835	choice	166.404145783978	NaN
168.453632408986	2.0161513290368	1	10	6	2	6	10	43.594028762536	4.89356064113839	1.40255474927835	feedback	166.404145783978	NaN
172.335970235057	1.76622604881413	1	2	10	2	10	2	4.89356064113839	4.89356064113839	1.75757550541312	choice	174.102196283871	NaN
179.100946366321	2.01607196894474	1	2	10	2	10	2	4.89356064113839	4.89356064113839	1.75757550541312	feedback	174.102196283871	NaN
184.282886496978	1.36644313624129	2	1	8	1	1	8	44.4858066222941	16.1621192465339	1.35582619672641	choice	185.649329633219	181.782886496978
188.765066691209	2.01629436854273	2	1	8	1	1	8	44.4858066222941	16.1621192465339	1.35582619672641	feedback	185.649329633219	181.782886496978
193.064136196859	1.63290342479013	2	11	5	1	11	5	100	2.61214098539182	1.62359176273458	choice	194.697039621649	NaN
197.729584519286	2.01616636896506	2	11	5	1	11	5	100	2.61214098539182	1.62359176273458	feedback	194.697039621649	NaN
200.695505544543	1.26635916880332	2	2	1	2	1	2	44.4858066222941	16.1621192465339	1.25613710843027	choice	201.961864713347	NaN
204.661171850516	2.01615644898266	2	2	1	2	1	2	44.4858066222941	16.1621192465339	1.25613710843027	feedback	201.961864713347	NaN
207.877026476199	2.0161990087945	2	2	4	1	2	4	16.1621192465339	1.67308660338568	1.9986582424026	choice	209.893225484993	NaN
212.54253559839	2.01606012904085	2	2	4	1	2	4	16.1621192465339	1.67308660338568	1.9986582424026	feedback	209.893225484993	NaN
216.14160804823	1.01642076834105	2	10	11	2	11	10	100	50.2328997724974	1.00299071427435	choice	217.158028816571	NaN
221.223664210644	2.01617180882022	2	10	11	2	11	10	100	50.2328997724974	1.00299071427435	feedback	217.158028816571	NaN
224.772801396204	1.59959980892017	2	5	4	1	5	4	2.61214098539182	1.67308660338568	1.58629071433097	choice	226.372401205124	NaN
230.13812453486	2.01612636889331	2	5	4	1	5	4	2.61214098539182	1.67308660338568	1.58629071433097	feedback	226.372401205124	NaN
234.603625721065	0.866438336437568	2	8	11	2	11	8	100	16.1621192465339	0.861810505390167	choice	235.470064057503	NaN
237.96947557875	2.01613468886353	2	8	11	2	11	8	100	16.1621192465339	0.861810505390167	feedback	235.470064057503	NaN
241.451905692462	1.54966166452505	2	10	2	1	10	2	50.2328997724974	16.1621192465339	1.5330364163965	choice	243.001567356987	NaN
246.000787518453	2.01615548902191	2	10	2	1	10	2	50.2328997724974	16.1621192465339	1.5330364163965	feedback	243.001567356987	NaN
249.666497600265	1.59958572895266	2	7	3	2	3	7	50.2328997724975	1.88923160081495	1.59247310250066	choice	251.266083329218	NaN
253.548904546071	2.01599420933053	2	7	3	2	3	7	50.2328997724975	1.88923160081495	1.59247310250066	feedback	251.266083329218	NaN
257.947780260351	1.64958499278873	2	9	7	1	9	7	19.0043934374881	1.88923160081495	1.63121190806851	choice	259.597365253139	NaN
264.362832263345	2.01612796913832	2	9	7	1	9	7	19.0043934374881	1.88923160081495	1.63121190806851	feedback	259.597365253139	NaN
270.827800970757	1.33302496047691	1	1	12	2	12	1	17.884245506376	0.759511501145757	1.31641155248508	choice	272.160825931234	268.327800970757
275.343378220685	2.01614940911531	1	1	12	2	12	1	17.884245506376	0.759511501145757	1.31641155248508	feedback	272.160825931234	268.327800970757
279.575629614759	0.99973664060235	1	6	7	2	7	6	90.3707077873196	43.594028762536	0.993598732398823	choice	280.575366255362	NaN
282.791499280371	2.01615484897047	1	6	7	2	7	6	90.3707077873196	43.594028762536	0.993598732398823	feedback	280.575366255362	NaN
286.273977393983	0.783105696551502	1	1	7	2	7	1	90.3707077873196	0.759511501145757	0.770911799743772	choice	287.057083090534	NaN
289.789738643682	2.01615228899755	1	1	7	2	7	1	90.3707077873196	0.759511501145757	0.770911799743772	feedback	287.057083090534	NaN
294.438581238035	1.23300243262202	1	10	1	1	10	1	4.89356064113839	0.759511501145757	1.21720534283668	choice	295.671583670657	NaN
298.904132664204	2.01615836890414	1	10	1	1	10	1	4.89356064113839	0.759511501145757	1.21720534283668	feedback	295.671583670657	NaN
303.019743642071	1.08303056051955	1	10	2	2	2	10	4.89356064113839	4.89356064113839	1.0745307370089	choice	304.102774202591	NaN
307.085285596317	2.01616348885	1	10	2	2	2	10	4.89356064113839	4.89356064113839	1.0745307370089	feedback	304.102774202591	NaN
311.500926398207	1.19973209663294	1	7	6	1	7	6	90.3707077873196	43.594028762536	1.18836475838907	choice	312.700658494839	NaN
315.733222592156	2.01616828911938	1	7	6	1	7	6	90.3707077873196	43.594028762536	1.18836475838907	feedback	312.700658494839	NaN
320.698614018736	1.14972579246387	1	9	10	1	9	10	70.8751717969681	4.89356064113839	1.13055622926913	choice	321.8483398112	NaN
326.247096165549	2.0163010887336	1	9	10	1	9	10	70.8751717969681	4.89356064113839	1.13055622926913	feedback	321.8483398112	NaN
329.163161286851	1.18300572852604	1	10	4	2	4	10	14.0261042959477	4.89356064113839	1.17038783268072	choice	330.346167015377	NaN
335.344954857603	2.01612764922902	1	10	4	2	4	10	14.0261042959477	4.89356064113839	1.17038783268072	feedback	330.346167015377	NaN
340.643612524262	0.949757216498256	1	10	12	2	12	10	17.884245506376	4.89356064113839	0.935747323324904	choice	341.59336974076	NaN
343.742838893784	2.0160489291884	1	10	12	2	12	10	17.884245506376	4.89356064113839	0.935747323324904	feedback	341.59336974076	NaN
346.908704175381	0.983089312445372	1	2	6	2	6	2	43.594028762536	4.89356064113839	0.967690941877663	choice	347.891793487826	NaN
352.773852594197	2.01619484904222	1	2	6	2	6	2	43.594028762536	4.89356064113839	0.967690941877663	feedback	347.891793487826	NaN
357.90593298059	1.28299945662729	2	5	3	2	3	5	50.2328997724975	2.61214098539182	1.27677002875134	choice	359.188932437217	355.40593298059
361.704977846472	2.01614972902462	2	5	3	2	3	5	50.2328997724975	2.61214098539182	1.27677002875134	feedback	359.188932437217	355.40593298059
366.237175224582	1.13304742472246	2	4	3	2	3	4	50.2328997724975	1.67308660338568	1.11828969302587	choice	367.370222649304	NaN
370.019531482598	2.01614492898807	2	4	3	2	3	4	50.2328997724975	1.67308660338568	1.11828969302587	feedback	367.370222649304	NaN
375.318173469044	1.98283907305449	2	5	4	2	4	5	1.67308660338568	2.61214098539182	1.96440998837352	choice	377.301012542099	NaN
379.817081311252	2.01615804899484	2	5	4	2	4	5	1.67308660338568	2.61214098539182	1.96440998837352	feedback	377.301012542099	NaN
382.682876448845	1.08316528028809	2	4	10	2	10	4	50.2328997724974	1.67308660338568	1.06534707453102	choice	383.766041729134	NaN
385.932188290171	2.01613468909636	2	4	10	2	10	4	50.2328997724974	1.67308660338568	1.06534707453102	feedback	383.766041729134	NaN
391.380825828761	1.01642972859554	2	1	10	2	10	1	50.2328997724974	44.4858066222941	1.01093821902759	choice	392.397255557356	NaN
394.53000186244	2.01614908897318	2	1	10	2	10	1	50.2328997724974	44.4858066222941	1.01093821902759	feedback	392.397255557356	NaN
397.745851688087	1.89952371292748	2	7	8	2	8	7	16.1621192465339	1.88923160081495	1.88590485905297	choice	399.645375401014	NaN
403.711022314848	2.01619228883646	2	7	8	2	8	7	16.1621192465339	1.88923160081495	1.88590485905297	feedback	399.645375401014	NaN
408.193193229148	1.68294364865869	2	8	4	1	8	4	16.1621192465339	1.67308660338568	1.66478272364475	choice	409.876136877807	NaN
412.508846062934	2.01603612932377	2	8	4	1	8	4	16.1621192465339	1.67308660338568	1.66478272364475	feedback	409.876136877807	NaN
416.824309137417	2.6494189130608	2	4	7	2	7	4	1.88923160081495	1.67308660338568	2.63211910636164	choice	419.473728050478	NaN
421.773039795691	2.01628796872683	2	4	7	2	7	4	1.88923160081495	1.67308660338568	2.63211910636164	feedback	419.473728050478	NaN
425.805448373547	1.38303414452821	2	3	11	2	11	3	100	50.2328997724975	1.37841495336033	choice	427.188482518075	NaN
431.120790168177	2.01615068898536	2	3	11	2	11	3	100	50.2328997724975	1.37841495336033	feedback	427.188482518075	NaN
434.136725497432	0.999736320693046	2	3	5	1	3	5	50.2328997724975	2.61214098539182	0.992247374961153	choice	435.136461818125	NaN
437.385914779035	2.0161161290016	2	3	5	1	3	5	50.2328997724975	2.61214098539182	0.992247374961153	feedback	435.136461818125	NaN
444.400798270479	1.38299702457152	1	8	1	1	8	1	43.594028762536	0.759511501145757	1.37418904155493	choice	445.78379529505	441.900798270479
449.816072993213	2.01616092887707	1	8	1	1	8	1	43.594028762536	0.759511501145757	1.37418904155493	feedback	445.78379529505	441.900798270479
453.648438115139	0.74980784021318	1	8	7	2	7	8	90.3707077873196	43.594028762536	0.734897148795426	choice	454.398245955352	NaN
456.614356580423	2.01620092894882	1	8	7	2	7	8	90.3707077873196	43.594028762536	0.734897148795426	feedback	454.398245955352	NaN
460.39674611832	0.899779712315649	1	6	8	2	8	6	43.594028762536	43.594028762536	0.886306778294966	choice	461.296525830636	NaN
464.212445992045	2.0161929288879	1	6	8	2	8	6	43.594028762536	43.594028762536	0.886306778294966	feedback	461.296525830636	NaN
468.161477769958	1.43295852886513	1	4	6	2	6	4	43.594028762536	14.0261042959477	1.41862127627246	choice	469.594436298823	NaN
472.626991436118	2.0161926089786	1	4	6	2	6	4	43.594028762536	14.0261042959477	1.41862127627246	feedback	469.594436298823	NaN
475.542939437553	1.44961609668098	1	12	2	1	12	2	17.884245506376	4.89356064113839	1.43839467829093	choice	476.992555534234	NaN
480.008469743654	2.01615740917623	1	12	2	1	12	2	17.884245506376	4.89356064113839	1.43839467829093	feedback	476.992555534234	NaN
485.007216946222	1.76624204870313	1	4	9	2	9	4	70.8751717969681	14.0261042959477	1.75463535101153	choice	486.773458994925	NaN
490.105923316674	2.01619420899078	1	4	9	2	9	4	70.8751717969681	14.0261042959477	1.75463535101153	feedback	486.773458994925	NaN
493.305035254452	1.08314512018114	1	12	9	2	9	12	70.8751717969681	17.884245506376	1.07129170303233	choice	494.388180374634	NaN
498.003937272355	2.01606620918028	1	12	9	2	9	12	70.8751717969681	17.884245506376	1.07129170303233	feedback	494.388180374634	NaN
502.102910842514	1.04971670452505	1	8	10	1	8	10	43.594028762536	4.89356064113839	1.04260311811231	choice	503.152627547039	NaN
506.401859708363	2.01611996907741	1	8	10	1	8	10	43.594028762536	4.89356064113839	1.04260311811231	feedback	503.152627547039	NaN
511.000666238833	1.99949952098541	1	4	2	2	2	4	4.89356064113839	14.0261042959477	1.98576962715015	choice	513.000165759819	NaN
517.549009505892	2.01619196892716	1	4	2	2	2	4	4.89356064113839	14.0261042959477	1.98576962715015	feedback	513.000165759819	NaN
522.431137412321	1.36633017659187	1	6	3	1	6	3	43.594028762536	11.0002740485006	1.34735357295722	choice	523.797467588913	NaN
526.31347491825	2.01609724899754	1	6	3	1	6	3	43.594028762536	11.0002740485006	1.34735357295722	feedback	523.797467588913	NaN
533.628296393668	1.73289395286702	2	3	9	1	3	9	50.2328997724975	19.0043934374881	1.71424342878163	choice	535.361190346535	531.128296393668
538.577039212221	2.01619676873088	2	3	9	1	3	9	50.2328997724975	19.0043934374881	1.71424342878163	feedback	535.361190346535	531.128296393668
541.492970573483	1.29967270465568	2	8	3	2	3	8	50.2328997724975	16.1621192465339	1.28694760915823	choice	542.792643278139	NaN
546.741664815927	2.01614716905169	2	8	3	2	3	8	50.2328997724975	16.1621192465339	1.28694760915823	feedback	542.792643278139	NaN
549.507634225301	1.34965724870563	2	10	9	1	10	9	50.2328997724974	19.0043934374881	1.33688255329616	choice	550.857291474007	NaN
554.789660563925	2.01615388900973	2	10	9	1	10	9	50.2328997724974	19.0043934374881	1.33688255329616	feedback	550.857291474007	NaN
558.638657333795	1.04972694464959	2	7	11	2	11	7	100	1.88923160081495	1.04097048123367	choice	559.688384278445	NaN
561.721248855116	2.01616444904357	2	7	11	2	11	7	100	1.88923160081495	1.04097048123367	feedback	559.688384278445	NaN
564.470513016684	2.33276096102782	2	9	2	2	2	9	16.1621192465339	19.0043934374881	2.31824994902126	choice	566.803273977712	NaN
570.185780123342	2.01611452898942	2	9	2	2	2	9	16.1621192465339	19.0043934374881	2.31824994902126	feedback	566.803273977712	NaN
574.334740797291	1.13299814471975	2	3	8	1	3	8	50.2328997724975	16.1621192465339	1.12158632650971	choice	575.46773894201	NaN
579.300121343695	2.0161926089786	2	3	8	1	3	8	50.2328997724975	16.1621192465339	1.12158632650971	feedback	575.46773894201	NaN
581.982871712884	1.01631132862531	2	4	7	2	7	4	1.88923160081495	1.67308660338568	1.00394975254312	choice	582.999183041509	NaN
585.381951586576	2.01616924908012	2	4	7	2	7	4	1.88923160081495	1.67308660338568	1.00394975254312	feedback	582.999183041509	NaN
589.380802788772	1.09982508840039	2	3	7	1	3	7	50.2328997724975	1.88923160081495	1.08854031004012	choice	590.480627877172	NaN
593.679841574747	2.01614460907876	2	3	7	1	3	7	50.2328997724975	1.88923160081495	1.08854031004012	feedback	590.480627877172	NaN
597.595427656779	1.89963315264322	2	4	8	1	4	8	1.67308660338568	16.1621192465339	1.88657237775624	choice	599.495060809422	NaN
602.277701226762	2.0160073293373	2	4	8	1	4	8	1.67308660338568	16.1621192465339	1.88657237775624	feedback	599.495060809422	NaN
607.526336269453	1.26638540858403	2	8	1	2	1	8	44.4858066222941	16.1621192465339	1.25333519349806	choice	608.792721678037	NaN
613.408204656327	2.0161769289989	2	8	1	2	1	8	44.4858066222941	16.1621192465339	1.25333519349806	feedback	608.792721678037	NaN
618.19023259473	1.04985814425163	1	9	8	1	9	8	70.8751717969681	43.594028762536	1.03862648596987	choice	619.240090738982	615.69023259473
621.306250931928	2.01613628910854	1	9	8	1	9	8	70.8751717969681	43.594028762536	1.03862648596987	feedback	619.240090738982	615.69023259473
624.438777717529	0.849796448368579	1	9	12	1	9	12	70.8751717969681	17.884245506376	0.845407336950302	choice	625.288574165897	NaN
628.804311415646	2.01619548909366	1	9	12	1	9	12	70.8751717969681	17.884245506376	0.845407336950302	feedback	625.288574165897	NaN
632.003549433313	2.19943321705796	1	6	12	1	6	12	43.594028762536	17.884245506376	2.19175547175109	choice	634.202982650371	NaN
638.002034236211	2.01615292881615	1	6	12	1	6	12	43.594028762536	17.884245506376	2.19175547175109	feedback	634.202982650371	NaN
641.067888829624	0.949799136491492	1	12	9	2	9	12	70.8751717969681	17.884245506376	0.929422535467893	choice	642.017687966116	NaN
644.91691439948	2.01616156892851	1	12	9	2	9	12	70.8751717969681	17.884245506376	0.929422535467893	feedback	642.017687966116	NaN
647.732917632908	1.04972118441947	1	12	4	1	12	4	17.884245506376	14.0261042959477	1.04411991522647	choice	648.782638817327	NaN
651.348673570668	2.01615260890685	1	12	4	1	12	4	17.884245506376	14.0261042959477	1.04411991522647	feedback	648.782638817327	NaN
654.731154756155	2.34941020910628	1	1	3	2	3	1	11.0002740485006	0.759511501145757	2.33162720338441	choice	657.080564965261	NaN
660.129784710938	2.01616252888925	1	1	3	2	3	1	11.0002740485006	0.759511501145757	2.33162720338441	feedback	657.080564965261	NaN
664.228759240825	1.03309209644794	1	2	8	2	8	2	43.594028762536	4.89356064113839	1.02312219562009	choice	665.261851337273	NaN
668.344356138958	2.01615324895829	1	2	8	2	8	2	43.594028762536	4.89356064113839	1.02312219562009	feedback	665.261851337273	NaN
672.726587724872	1.88290422502905	1	3	1	1	3	1	11.0002740485006	0.759511501145757	1.86492057936266	choice	674.609491949901	NaN
676.975549486931	2.01614268915728	1	3	1	1	3	1	11.0002740485006	0.759511501145757	1.86492057936266	feedback	674.609491949901	NaN
682.507453105645	1.08306512050331	1	3	1	1	3	1	11.0002740485006	0.759511501145757	1.07396817812696	choice	683.590518226149	NaN
686.03988472349	2.01620732876472	1	3	1	1	3	1	11.0002740485006	0.759511501145757	1.07396817812696	feedback	683.590518226149	NaN
689.255793748889	2.13277990510687	1	12	2	1	12	2	17.884245506376	4.89356064113839	2.12771911476739	choice	691.388573653996	NaN
693.987916183192	2.01605948922224	1	12	2	1	12	2	17.884245506376	4.89356064113839	2.12771911476739	feedback	691.388573653996	NaN
699.519826521864	0.683174368459731	2	11	5	1	11	5	100	2.61214098539182	0.675919022411108	choice	700.203000890324	697.019826521864
703.918751836056	2.01616220897995	2	11	5	1	11	5	100	2.61214098539182	0.675919022411108	feedback	700.203000890324	697.019826521864
706.867988093523	3.6324339855928	2	7	5	2	5	7	2.61214098539182	1.88923160081495	3.62462120060809	choice	710.500422079116	NaN
712.699878976215	2.01603612932377	2	7	5	2	5	7	2.61214098539182	1.88923160081495	3.62462120060809	feedback	710.500422079116	NaN
715.782397217816	1.01642364845611	2	1	3	1	1	3	44.4858066222941	50.2328997724975	1.00735198589973	choice	716.798820866272	NaN
719.031642819289	2.0161001291126	2	1	3	1	1	3	44.4858066222941	50.2328997724975	1.00735198589973	feedback	716.798820866272	NaN
723.063819397474	1.14982691244222	2	9	10	2	10	9	50.2328997724974	19.0043934374881	1.1318915868178	choice	724.213646309916	NaN
728.029315463733	2.01615900895558	2	9	10	2	10	9	50.2328997724974	19.0043934374881	1.1318915868178	feedback	724.213646309916	NaN
732.111560425721	1.38307670457289	2	10	2	1	10	2	50.2328997724974	16.1621192465339	1.37115768739022	choice	733.494637130294	NaN
737.510265580378	2.01614428893663	2	10	2	1	10	2	50.2328997724974	16.1621192465339	1.37115768739022	feedback	733.494637130294	NaN
740.409536813619	0.983102752594277	2	11	9	1	11	9	100	19.0043934374881	0.974258929491043	choice	741.392639566213	NaN
743.4254660632	2.01615548902191	2	11	9	1	11	9	100	19.0043934374881	0.974258929491043	feedback	741.392639566213	NaN
746.124785040505	0.966416704468429	2	2	1	2	1	2	44.4858066222941	16.1621192465339	0.946444902801886	choice	747.091201744974	NaN
751.540069043171	2.01613948890008	2	2	1	2	1	2	44.4858066222941	16.1621192465339	0.946444902801886	feedback	747.091201744974	NaN
754.772568436805	1.29967206460424	2	5	9	2	9	5	19.0043934374881	2.61214098539182	1.29321447690018	choice	756.072240501409	NaN
758.205079286359	2.01616380899213	2	5	9	2	9	5	19.0043934374881	2.61214098539182	1.29321447690018	feedback	756.072240501409	NaN
763.037173688645	0.966400064527988	2	5	10	2	10	5	50.2328997724974	2.61214098539182	0.960834315279499	choice	764.003573753173	NaN
768.085931355134	2.01609564898536	2	5	10	2	10	5	50.2328997724974	2.61214098539182	0.960834315279499	feedback	764.003573753173	NaN
771.218438620679	2.53269465710036	2	2	9	1	2	9	16.1621192465339	19.0043934374881	2.52554427087307	choice	773.751133277779	NaN
776.267185087083	2.0161478088703	2	2	9	1	2	9	16.1621192465339	19.0043934374881	2.52554427087307	feedback	773.751133277779	NaN
781.432563009439	2.21610230510123	1	9	3	1	9	3	70.8751717969681	11.0002740485006	2.20118713378906	choice	783.64866531454	778.932563009439
786.747899044072	2.01611548895016	1	9	3	1	9	3	70.8751717969681	11.0002740485006	2.20118713378906	feedback	783.64866531454	778.932563009439
791.479999398347	0.583177440334111	1	7	9	1	7	9	90.3707077873196	70.8751717969681	0.569145467365161	choice	792.063176838681	NaN
795.229081480298	2.01616220874712	1	7	9	1	7	9	90.3707077873196	70.8751717969681	0.569145467365161	feedback	792.063176838681	NaN
800.027841226663	1.04974582442082	1	8	4	1	8	4	43.594028762536	14.0261042959477	1.03385689482093	choice	801.077587051084	NaN
804.509998380905	2.01622876874171	1	8	4	1	8	4	43.594028762536	14.0261042959477	1.03385689482093	feedback	801.077587051084	NaN
808.942267310806	1.1663718407508	1	1	9	2	9	1	70.8751717969681	0.759511501145757	1.15418018400669	choice	810.108639151556	NaN
815.124050641898	2.01617948897183	1	1	9	2	9	1	70.8751717969681	0.759511501145757	1.15418018400669	feedback	810.108639151556	NaN
820.639250292676	1.56637299247086	1	4	3	1	4	3	14.0261042959477	11.0002740485006	1.55715765035711	choice	822.205623285146	NaN
824.471693174448	2.016147488961	1	4	3	1	4	3	14.0261042959477	11.0002740485006	1.55715765035711	feedback	822.205623285146	NaN
828.870573688531	0.783141216263175	1	7	1	1	7	1	90.3707077873196	0.759511501145757	0.768986683571711	choice	829.653714904794	NaN
831.903177466011	2.01616060896777	1	7	1	1	7	1	90.3707077873196	0.759511501145757	0.768986683571711	feedback	829.653714904794	NaN
834.485834587133	1.2663767687045	1	6	4	1	6	4	43.594028762536	14.0261042959477	1.25402703229338	choice	835.752211355837	NaN
839.168022717349	2.01612124918029	1	6	4	1	6	4	43.594028762536	14.0261042959477	1.25402703229338	feedback	835.752211355837	NaN
843.017012767261	0.766475648386404	1	7	8	1	7	8	90.3707077873196	43.594028762536	0.762263816548511	choice	843.783488415647	NaN
847.899144193623	2.01616252912208	1	7	8	1	7	8	90.3707077873196	43.594028762536	0.762263816548511	feedback	843.783488415647	NaN
851.514797731536	1.3830491846893	1	3	6	2	6	3	43.594028762536	11.0002740485006	1.37467224081047	choice	852.897846916225	NaN
856.713571429951	2.0161417289637	1	3	6	2	6	3	43.594028762536	11.0002740485006	1.37467224081047	feedback	852.897846916225	NaN
859.779454823583	0.716493984218687	1	7	4	1	7	4	90.3707077873196	14.0261042959477	0.702842170372605	choice	860.495948807802	NaN
863.378591273213	2.01615132880397	1	7	4	1	7	4	90.3707077873196	14.0261042959477	0.702842170372605	feedback	860.495948807802	NaN
