onset	duration	object	trial_type	map	stayswitch	distance	value	counterfactual_value	value_diff	choicetype	object1	object2	chosen_distance	unchosen_distance	chosen_value	unchosen_value	counterfactual_chosen_value	counterfactual_unchosen_value	button	response_time	cr
8.7686948440969	2.00968574150465	10	object_onset	2	n/a	NaN	NaN	NaN	NaN	n/a	NaN	NaN	NaN	NaN	NaN	NaN	NaN	NaN	NaN	NaN	NaN
16.5412872807356	2.00952222174965	10	object_onset	2	stay	0	50	5	45	n/a	NaN	NaN	NaN	NaN	NaN	NaN	NaN	NaN	NaN	NaN	NaN
23.3949525217758	2.00825374410488	3	object_onset	1	switch	0.9	11	50	-39	n/a	NaN	NaN	NaN	NaN	NaN	NaN	NaN	NaN	NaN	NaN	NaN
30.7060255245306	2.00824350409675	12	object_onset	1	stay	0.458911756223351	18	72	-54	n/a	NaN	NaN	NaN	NaN	NaN	NaN	NaN	NaN	NaN	NaN	NaN
37.8751688797493	2.00834174396005	10	object_onset	2	switch	0.458911756223351	50	5	45	n/a	NaN	NaN	NaN	NaN	NaN	NaN	NaN	NaN	NaN	NaN	NaN
45.2501911997097	2.00836222385988	7	object_onset	2	stay	1.08747413762351	2	90	-88	n/a	NaN	NaN	NaN	NaN	NaN	NaN	NaN	NaN	NaN	NaN	NaN
51.9427309900057	2.00879294308834	10	object_onset	1	switch	1.08747413762351	5	50	-45	n/a	NaN	NaN	NaN	NaN	NaN	NaN	NaN	NaN	NaN	NaN	NaN
58.2412001768826	2.00881630310323	11	object_onset	2	switch	0.524785670536077	100	3	97	n/a	NaN	NaN	NaN	NaN	NaN	NaN	NaN	NaN	NaN	NaN	NaN
63.9169825594872	2.00849566364195	8	object_onset	1	switch	0.853814968245462	44	16	28	n/a	NaN	NaN	NaN	NaN	NaN	NaN	NaN	NaN	NaN	NaN	NaN
68.915462242323	2.00828190415632	2	object_onset	1	stay	1.20747670784989	5	16	-11	n/a	NaN	NaN	NaN	NaN	NaN	NaN	NaN	NaN	NaN	NaN	NaN
73.7579214248108	9.92707885999698	2	choice	1	n/a	NaN	NaN	NaN	NaN	d	6	1	0.524785670536077	0.524785670536077	38.7004681213976	4.13404913999263	2.96273492775089	28.3236873757602	83.6654569624225	9.90753553761169	1
87.7624708560761	2.0081987043377	9	object_onset	2	switch	0.9	19	71	-52	n/a	NaN	NaN	NaN	NaN	NaN	NaN	NaN	NaN	NaN	NaN	NaN
94.5758254544344	2.00833246402908	1	object_onset	2	stay	1.08747413762351	44	1	43	n/a	NaN	NaN	NaN	NaN	NaN	NaN	NaN	NaN	NaN	NaN	NaN
102.129536711378	2.00856606347952	4	object_onset	1	switch	1.08747413762351	14	2	12	n/a	NaN	NaN	NaN	NaN	NaN	NaN	NaN	NaN	NaN	NaN	NaN
108.406337139895	2.008236464113	11	object_onset	2	switch	1.27914033631967	100	3	97	n/a	NaN	NaN	NaN	NaN	NaN	NaN	NaN	NaN	NaN	NaN	NaN
114.674893424264	2.00819166423753	3	object_onset	2	stay	0.524785670536077	50	11	39	n/a	NaN	NaN	NaN	NaN	NaN	NaN	NaN	NaN	NaN	NaN	NaN
121.708008240676	2.00839870388154	4	object_onset	1	switch	0.763675323681471	14	2	12	n/a	NaN	NaN	NaN	NaN	NaN	NaN	NaN	NaN	NaN	NaN	NaN
128.312344040372	15.4784906012937	4	choice	1	n/a	NaN	NaN	NaN	NaN	d	12	10	1.08747413762351	1.53792067415716	3.85814121042835	9.13254365480929	70.6519376345985	48.5598131691118	143.779562023235	15.4672179828631	1
149.050918302266	2.00858686352149	6	object_onset	2	switch	0.458911756223351	13	44	-31	n/a	NaN	NaN	NaN	NaN	NaN	NaN	NaN	NaN	NaN	NaN	NaN
155.110380588099	2.00818206428085	7	object_onset	1	switch	0.763675323681471	90	2	88	n/a	NaN	NaN	NaN	NaN	NaN	NaN	NaN	NaN	NaN	NaN	NaN
160.650023392052	2.00829310400877	3	object_onset	1	stay	1.08747413762351	11	50	-39	n/a	NaN	NaN	NaN	NaN	NaN	NaN	NaN	NaN	NaN	NaN	NaN
165.877042156179	2.00816446426325	10	object_onset	1	stay	0.9	5	50	-45	n/a	NaN	NaN	NaN	NaN	NaN	NaN	NaN	NaN	NaN	NaN	NaN
171.288690965739	2.00813054444734	6	object_onset	2	switch	1.08747413762351	13	44	-31	n/a	NaN	NaN	NaN	NaN	NaN	NaN	NaN	NaN	NaN	NaN	NaN
177.974143089727	2.00825886405073	12	object_onset	1	switch	0.648999229583518	18	72	-54	n/a	NaN	NaN	NaN	NaN	NaN	NaN	NaN	NaN	NaN	NaN	NaN
183.643052845378	2.00900894275401	7	object_onset	2	switch	0.9	2	90	-88	n/a	NaN	NaN	NaN	NaN	NaN	NaN	NaN	NaN	NaN	NaN	NaN
189.56533427455	2.00826174416579	12	object_onset	1	switch	0.9	18	72	-54	n/a	NaN	NaN	NaN	NaN	NaN	NaN	NaN	NaN	NaN	NaN	NaN
194.502855674597	2.00822654413059	2	object_onset	1	stay	0.814984662432368	5	16	-11	n/a	NaN	NaN	NaN	NaN	NaN	NaN	NaN	NaN	NaN	NaN	NaN
201.219356698915	2.00814398436341	6	object_onset	1	stay	0.524785670536077	44	13	31	n/a	NaN	NaN	NaN	NaN	NaN	NaN	NaN	NaN	NaN	NaN	NaN
207.522690516431	2.00828830408864	7	object_onset	2	switch	0.763675323681471	2	90	-88	n/a	NaN	NaN	NaN	NaN	NaN	NaN	NaN	NaN	NaN	NaN	NaN
213.757809105096	35.4286622168729	7	choice	2	n/a	NaN	NaN	NaN	NaN	d	4	9	0.458911756223351	1.08747413762351	17.1151618366732	0.216144997429269	19.4955359903515	76.3446034913719	249.174363185302	35.416554080206	1
254.817552030319	2.00820286432281	9	object_onset	2	stay	0.458911756223351	19	71	-52	n/a	NaN	NaN	NaN	NaN	NaN	NaN	NaN	NaN	NaN	NaN	NaN
260.148377315141	2.00828318414278	1	object_onset	1	switch	1.08747413762351	1	44	-43	n/a	NaN	NaN	NaN	NaN	NaN	NaN	NaN	NaN	NaN	NaN	NaN
265.422395989066	2.0087251032237	6	object_onset	1	stay	0.9	44	13	31	n/a	NaN	NaN	NaN	NaN	NaN	NaN	NaN	NaN	NaN	NaN	NaN
271.147773156292	2.00815870438237	8	object_onset	1	stay	0.814984662432368	44	16	28	n/a	NaN	NaN	NaN	NaN	NaN	NaN	NaN	NaN	NaN	NaN	NaN
278.080081766238	2.00824254425243	8	object_onset	2	switch	0	16	44	-28	n/a	NaN	NaN	NaN	NaN	NaN	NaN	NaN	NaN	NaN	NaN	NaN
282.971334135043	2.00795486476272	5	object_onset	2	stay	0.853814968245462	3	71	-68	n/a	NaN	NaN	NaN	NaN	NaN	NaN	NaN	NaN	NaN	NaN	NaN
290.233810751117	2.00831070402637	11	object_onset	1	switch	1.20747670784989	3	100	-97	n/a	NaN	NaN	NaN	NaN	NaN	NaN	NaN	NaN	NaN	NaN	NaN
296.148662434658	2.00822878419422	4	object_onset	1	stay	1.27914033631967	14	2	12	n/a	NaN	NaN	NaN	NaN	NaN	NaN	NaN	NaN	NaN	NaN	NaN
301.810329644242	2.00826334406156	4	object_onset	2	switch	0	2	14	-12	n/a	NaN	NaN	NaN	NaN	NaN	NaN	NaN	NaN	NaN	NaN	NaN
308.77505195199	19.2102959161857	4	choice	2	n/a	NaN	NaN	NaN	NaN	d	11	9	0.9	1.27914033631967	17.3313068341025	98.3269133966143	56.8490675010204	11.0161641725979	327.974481969024	19.1994300170336	1
331.09584909596	2.00825918419287	4	object_onset	2	stay	0	2	14	-12	n/a	NaN	NaN	NaN	NaN	NaN	NaN	NaN	NaN	NaN	NaN	NaN
337.718927899725	2.00809342449065	10	object_onset	1	switch	1.53792067415716	5	50	-45	n/a	NaN	NaN	NaN	NaN	NaN	NaN	NaN	NaN	NaN	NaN	NaN
342.818822747911	2.00854078354314	1	object_onset	2	switch	1.08747413762351	44	1	43	n/a	NaN	NaN	NaN	NaN	NaN	NaN	NaN	NaN	NaN	NaN	NaN
347.834429757902	2.00827902415767	3	object_onset	2	stay	0.458911756223351	50	11	39	n/a	NaN	NaN	NaN	NaN	NaN	NaN	NaN	NaN	NaN	NaN	NaN
355.486890905187	2.0082540641306	5	object_onset	2	stay	0.814984662432368	3	71	-68	n/a	NaN	NaN	NaN	NaN	NaN	NaN	NaN	NaN	NaN	NaN	NaN
360.48941122042	2.00836542388424	12	object_onset	1	switch	0.9	18	72	-54	n/a	NaN	NaN	NaN	NaN	NaN	NaN	NaN	NaN	NaN	NaN	NaN
365.589355348493	21.605939636589	12	choice	1	n/a	NaN	NaN	NaN	NaN	d	7	8	0.524785670536077	0.9	25.7097832561599	72.4864622809436	56.1629049914503	70.4357926371693	387.183948126854	21.5945927783614	1
390.64649859874	2.00838110398035	1	object_onset	1	stay	0.763675323681471	1	44	-43	n/a	NaN	NaN	NaN	NaN	NaN	NaN	NaN	NaN	NaN	NaN	NaN
397.227397963405	2.00836798397359	4	object_onset	1	stay	1.08747413762351	14	2	12	n/a	NaN	NaN	NaN	NaN	NaN	NaN	NaN	NaN	NaN	NaN	NaN
402.067541630357	2.00819582422264	12	object_onset	2	switch	1.08747413762351	72	18	54	n/a	NaN	NaN	NaN	NaN	NaN	NaN	NaN	NaN	NaN	NaN	NaN
407.130249349982	2.00843006384093	4	object_onset	2	stay	1.08747413762351	2	14	-12	n/a	NaN	NaN	NaN	NaN	NaN	NaN	NaN	NaN	NaN	NaN	NaN
412.387951255194	2.00821758422535	11	object_onset	1	switch	1.27914033631967	3	100	-97	n/a	NaN	NaN	NaN	NaN	NaN	NaN	NaN	NaN	NaN	NaN	NaN
419.683101088507	2.00836158392485	3	object_onset	1	stay	0.524785670536077	11	50	-39	n/a	NaN	NaN	NaN	NaN	NaN	NaN	NaN	NaN	NaN	NaN	NaN
425.392300366773	40.0920635033399	3	choice	1	n/a	NaN	NaN	NaN	NaN	d	5	11	0.814984662432368	0.524785670536077	59.8748977484675	7.99033392515088	47.6207587871056	49.7671002275025	465.473715890548	40.0814155237749	-1
468.977891882532	2.00828702410217	9	object_onset	1	stay	0.648999229583518	71	19	52	n/a	NaN	NaN	NaN	NaN	NaN	NaN	NaN	NaN	NaN	NaN	NaN
475.249074721825	2.00829182402231	9	object_onset	2	switch	0	19	71	-52	n/a	NaN	NaN	NaN	NaN	NaN	NaN	NaN	NaN	NaN	NaN	NaN
481.486572185881	2.00829502404667	5	object_onset	2	stay	0.524785670536077	3	71	-68	n/a	NaN	NaN	NaN	NaN	NaN	NaN	NaN	NaN	NaN	NaN	NaN
485.956079764408	42.9067486589774	5	choice	2	n/a	NaN	NaN	NaN	NaN	d	8	2	0.853814968245462	0.853814968245462	13.5499782611421	13.5499782611421	65.9816111558298	27.2811430344322	528.852057244047	42.8959774796385	1
534.274058353854	2.0082223842619	6	object_onset	2	stay	0.36	13	44	-31	n/a	NaN	NaN	NaN	NaN	NaN	NaN	NaN	NaN	NaN	NaN	NaN
539.606193716172	2.0082460641861	6	object_onset	1	switch	0	44	13	31	n/a	NaN	NaN	NaN	NaN	NaN	NaN	NaN	NaN	NaN	NaN	NaN
544.98799842305	2.00823870417662	2	object_onset	2	switch	0.524785670536077	16	5	11	n/a	NaN	NaN	NaN	NaN	NaN	NaN	NaN	NaN	NaN	NaN	NaN
549.97203525377	2.0082975840196	10	object_onset	1	switch	1.26	5	50	-45	n/a	NaN	NaN	NaN	NaN	NaN	NaN	NaN	NaN	NaN	NaN	NaN
555.236293306341	8.45915975840762	10	choice	1	n/a	NaN	NaN	NaN	NaN	d	12	5	0.458911756223351	1.27914033631967	12.9906848652376	65.9816111558298	22.0921244654868	47.6207587871056	563.684188126354	8.44789482001215	1
567.069966265699	2.00835550401825	5	object_onset	1	stay	1.27914033631967	71	3	68	n/a	NaN	NaN	NaN	NaN	NaN	NaN	NaN	NaN	NaN	NaN	NaN
573.642896685633	2.00816062442027	4	object_onset	1	stay	0.524785670536077	14	2	12	n/a	NaN	NaN	NaN	NaN	NaN	NaN	NaN	NaN	NaN	NaN	NaN
580.632771265111	2.00827262410894	10	object_onset	1	stay	1.53792067415716	5	50	-45	n/a	NaN	NaN	NaN	NaN	NaN	NaN	NaN	NaN	NaN	NaN	NaN
587.019463002682	2.00818622426596	8	object_onset	2	switch	0.569209978830308	16	44	-28	n/a	NaN	NaN	NaN	NaN	NaN	NaN	NaN	NaN	NaN	NaN	NaN
593.892439246527	2.00833246402908	3	object_onset	2	stay	0.9	50	11	39	n/a	NaN	NaN	NaN	NaN	NaN	NaN	NaN	NaN	NaN	NaN	NaN
599.803059258149	2.00806750450283	5	object_onset	1	switch	0.814984662432368	71	3	68	n/a	NaN	NaN	NaN	NaN	NaN	NaN	NaN	NaN	NaN	NaN	NaN
605.830042566406	2.00822430418339	7	object_onset	2	switch	0.569209978830308	2	90	-88	n/a	NaN	NaN	NaN	NaN	NaN	NaN	NaN	NaN	NaN	NaN	NaN
612.311732841539	2.00820638425648	7	object_onset	1	switch	0	90	2	88	n/a	NaN	NaN	NaN	NaN	NaN	NaN	NaN	NaN	NaN	NaN	NaN
617.82991392666	2.00820222415496	7	object_onset	1	stay	0	90	2	88	n/a	NaN	NaN	NaN	NaN	NaN	NaN	NaN	NaN	NaN	NaN	NaN
625.286906009191	2.00888574298006	6	object_onset	2	switch	0.763675323681471	13	44	-31	n/a	NaN	NaN	NaN	NaN	NaN	NaN	NaN	NaN	NaN	NaN	NaN
631.183567007538	2.00834558403585	3	object_onset	1	switch	0.458911756223351	11	50	-39	n/a	NaN	NaN	NaN	NaN	NaN	NaN	NaN	NaN	NaN	NaN	NaN
636.847007973818	2.0083132639993	12	object_onset	2	switch	0.458911756223351	72	18	54	n/a	NaN	NaN	NaN	NaN	NaN	NaN	NaN	NaN	NaN	NaN	NaN
642.027060748078	2.00909534259699	3	object_onset	2	stay	0.458911756223351	50	11	39	n/a	NaN	NaN	NaN	NaN	NaN	NaN	NaN	NaN	NaN	NaN	NaN
647.30003654398	23.7029778502183	3	choice	2	n/a	NaN	NaN	NaN	NaN	d	6	1	0.458911756223351	0.458911756223351	37.0335154537144	5.74709315020333	32.5937547140354	10.2407625473549	670.991884495597	23.6918479516171	1
675.015732449829	2.00845502375159	4	object_onset	2	stay	0.763675323681471	2	14	-12	n/a	NaN	NaN	NaN	NaN	NaN	NaN	NaN	NaN	NaN	NaN	NaN
680.079106408171	2.00830878398847	11	object_onset	2	stay	1.27914033631967	100	3	97	n/a	NaN	NaN	NaN	NaN	NaN	NaN	NaN	NaN	NaN	NaN	NaN
685.39333812485	2.00830174400471	6	object_onset	1	switch	0.9	44	13	31	n/a	NaN	NaN	NaN	NaN	NaN	NaN	NaN	NaN	NaN	NaN	NaN
691.605162358144	2.00831614399794	1	object_onset	1	stay	0.9	1	44	-43	n/a	NaN	NaN	NaN	NaN	NaN	NaN	NaN	NaN	NaN	NaN	NaN
696.613061542972	2.00842174387071	11	object_onset	2	switch	0.569209978830308	100	3	97	n/a	NaN	NaN	NaN	NaN	NaN	NaN	NaN	NaN	NaN	NaN	NaN
701.678032298223	2.00845438381657	2	object_onset	2	stay	0.853814968245462	16	5	11	n/a	NaN	NaN	NaN	NaN	NaN	NaN	NaN	NaN	NaN	NaN	NaN
706.840217906865	2.00811358436476	1	object_onset	2	stay	0.524785670536077	44	1	43	n/a	NaN	NaN	NaN	NaN	NaN	NaN	NaN	NaN	NaN	NaN	NaN
714.224920528242	2.00845470372587	8	object_onset	1	switch	1.27914033631967	44	16	28	n/a	NaN	NaN	NaN	NaN	NaN	NaN	NaN	NaN	NaN	NaN	NaN
719.053871576558	2.00808094453532	7	object_onset	1	stay	0.524785670536077	90	2	88	n/a	NaN	NaN	NaN	NaN	NaN	NaN	NaN	NaN	NaN	NaN	NaN
725.085124636651	2.00810622435529	5	object_onset	1	stay	0.569209978830308	71	3	68	n/a	NaN	NaN	NaN	NaN	NaN	NaN	NaN	NaN	NaN	NaN	NaN
732.733077632496	2.00820894422941	5	object_onset	1	stay	0	71	3	68	n/a	NaN	NaN	NaN	NaN	NaN	NaN	NaN	NaN	NaN	NaN	NaN
737.685927643091	2.00852862361353	9	object_onset	1	stay	0.524785670536077	71	19	52	n/a	NaN	NaN	NaN	NaN	NaN	NaN	NaN	NaN	NaN	NaN	NaN
742.63586213917	18.1409779693931	9	choice	1	n/a	NaN	NaN	NaN	NaN	d	3	11	0.648999229583518	0.814984662432368	59.8748977484675	67.8652316736184	31.2285063350093	80.9956065625119	760.766004929319	18.130142790149	1
765.285229852423	2.00837886391673	12	object_onset	1	stay	0.458911756223351	18	72	-54	n/a	NaN	NaN	NaN	NaN	NaN	NaN	NaN	NaN	NaN	NaN	NaN
772.837793911458	2.00810014444869	12	object_onset	2	switch	0	72	18	54	n/a	NaN	NaN	NaN	NaN	NaN	NaN	NaN	NaN	NaN	NaN	NaN
777.421079511521	43.5828187210718	12	choice	2	n/a	NaN	NaN	NaN	NaN	d	7	4	0.9	1.08747413762351	70.4357926371693	70.6519376345985	72.4864622809436	3.85814121042835	820.992858573794	43.571779062273	1
825.159212494385	2.00846846366767	11	object_onset	1	switch	0.36	3	100	-97	n/a	NaN	NaN	NaN	NaN	NaN	NaN	NaN	NaN	NaN	NaN	NaN
830.566173632978	2.00836670398712	8	object_onset	1	stay	0.853814968245462	44	16	28	n/a	NaN	NaN	NaN	NaN	NaN	NaN	NaN	NaN	NaN	NaN	NaN
836.263254854595	2.00820606423076	8	object_onset	1	stay	0	44	16	28	n/a	NaN	NaN	NaN	NaN	NaN	NaN	NaN	NaN	NaN	NaN	NaN
841.360776907299	2.00851358368527	3	object_onset	1	stay	0.9	11	50	-39	n/a	NaN	NaN	NaN	NaN	NaN	NaN	NaN	NaN	NaN	NaN	NaN
846.191919311532	2.00848510372452	7	object_onset	1	stay	1.08747413762351	90	2	88	n/a	NaN	NaN	NaN	NaN	NaN	NaN	NaN	NaN	NaN	NaN	NaN
851.379435751471	10.1163476166548	7	choice	1	n/a	NaN	NaN	NaN	NaN	d	1	12	0.9	1.53792067415716	72.4864622809436	89.6111962861739	70.4357926371693	42.5965750214792	861.484717149404	10.1052813979331	1
865.302788538742	2.00819582422264	3	object_onset	2	switch	1.08747413762351	50	11	39	n/a	NaN	NaN	NaN	NaN	NaN	NaN	NaN	NaN	NaN	NaN	NaN
871.726016846136	2.00831422396004	2	object_onset	2	stay	0.36	16	5	11	n/a	NaN	NaN	NaN	NaN	NaN	NaN	NaN	NaN	NaN	NaN	NaN
878.983614111552	2.00838782382198	8	object_onset	2	stay	1.20747670784989	16	44	-28	n/a	NaN	NaN	NaN	NaN	NaN	NaN	NaN	NaN	NaN	NaN	NaN
885.705694005126	2.00842174387071	5	object_onset	1	switch	0.853814968245462	71	3	68	n/a	NaN	NaN	NaN	NaN	NaN	NaN	NaN	NaN	NaN	NaN	NaN
892.898761794437	2.00822494423483	1	object_onset	2	switch	1.26	44	1	43	n/a	NaN	NaN	NaN	NaN	NaN	NaN	NaN	NaN	NaN	NaN	NaN
897.093139661243	25.9114587299991	1	choice	2	n/a	NaN	NaN	NaN	NaN	d	5	10	1.08747413762351	1.26	5.74709315020331	41.8736656369023	4.13404913999263	70.1156602958224	922.993423692649	25.900284031406	1
927.916947679478	2.00826942420099	11	object_onset	1	switch	0.569209978830308	3	100	-97	n/a	NaN	NaN	NaN	NaN	NaN	NaN	NaN	NaN	NaN	NaN	NaN
933.457864080905	2.0083148641279	6	object_onset	1	stay	0.9	44	13	31	n/a	NaN	NaN	NaN	NaN	NaN	NaN	NaN	NaN	NaN	NaN	NaN
937.902417467441	11.2999207040993	6	choice	1	n/a	NaN	NaN	NaN	NaN	d	10	3	0.458911756223351	1.08747413762351	32.5937547140354	38.7004681213976	37.0335154537144	37.0335154537144	949.191550672287	11.2891332048457	1
953.299027265864	2.00876414321829	2	object_onset	1	stay	0.524785670536077	5	16	-11	n/a	NaN	NaN	NaN	NaN	NaN	NaN	NaN	NaN	NaN	NaN	NaN
959.061545481905	2.00821662414819	8	object_onset	2	switch	1.20747670784989	16	44	-28	n/a	NaN	NaN	NaN	NaN	NaN	NaN	NaN	NaN	NaN	NaN	NaN
965.496054407675	4.81313411868177	8	choice	2	n/a	NaN	NaN	NaN	NaN	d	3	7	0.524785670536077	0.9	14.272887645719	34.0707805259635	46.7766790247836	32.5937547140353	970.300734462682	4.80468005500734	1
975.415729761822	2.00840222393163	10	object_onset	1	switch	0.569209978830308	5	50	-45	n/a	NaN	NaN	NaN	NaN	NaN	NaN	NaN	NaN	NaN	NaN	NaN
981.106871154858	2.00813566439319	11	object_onset	1	stay	0.524785670536077	3	100	-97	n/a	NaN	NaN	NaN	NaN	NaN	NaN	NaN	NaN	NaN	NaN	NaN
986.739313460537	2.00814238435123	7	object_onset	2	switch	1.26	2	90	-88	n/a	NaN	NaN	NaN	NaN	NaN	NaN	NaN	NaN	NaN	NaN	NaN
993.375893678283	2.00822782423347	7	object_onset	2	stay	0	2	90	-88	n/a	NaN	NaN	NaN	NaN	NaN	NaN	NaN	NaN	NaN	NaN	NaN
1000.72499540809	2.00827486405615	1	object_onset	1	switch	1.53792067415716	1	44	-43	n/a	NaN	NaN	NaN	NaN	NaN	NaN	NaN	NaN	NaN	NaN	NaN
1007.16928287502	2.00825246411841	5	object_onset	2	switch	1.26	3	71	-68	n/a	NaN	NaN	NaN	NaN	NaN	NaN	NaN	NaN	NaN	NaN	NaN
1013.85925083025	2.00826430413872	1	object_onset	1	switch	1.26	1	44	-43	n/a	NaN	NaN	NaN	NaN	NaN	NaN	NaN	NaN	NaN	NaN	NaN
1019.74728336523	2.00811006443109	9	object_onset	1	stay	1.08747413762351	71	19	52	n/a	NaN	NaN	NaN	NaN	NaN	NaN	NaN	NaN	NaN	NaN	NaN
1024.7960263117	2.00806846446358	8	object_onset	2	switch	0.36	16	44	-28	n/a	NaN	NaN	NaN	NaN	NaN	NaN	NaN	NaN	NaN	NaN	NaN
1031.40624818008	2.00814398436341	11	object_onset	2	stay	0.853814968245462	100	3	97	n/a	NaN	NaN	NaN	NaN	NaN	NaN	NaN	NaN	NaN	NaN	NaN
1036.78527273238	2.00837758381385	9	object_onset	1	switch	0.814984662432368	71	19	52	n/a	NaN	NaN	NaN	NaN	NaN	NaN	NaN	NaN	NaN	NaN	NaN
1043.59324782097	2.0084057438653	4	object_onset	2	switch	0.9	2	14	-12	n/a	NaN	NaN	NaN	NaN	NaN	NaN	NaN	NaN	NaN	NaN	NaN
1049.04675255029	2.0082540641306	2	object_onset	2	stay	0.569209978830308	16	5	11	n/a	NaN	NaN	NaN	NaN	NaN	NaN	NaN	NaN	NaN	NaN	NaN
1054.38486966107	72.0275327471318	2	choice	2	n/a	NaN	NaN	NaN	NaN	d	9	12	0.814984662432368	0.9	56.1629049914503	2.84227419095423	12.9906848652376	65.9816111558297	1126.40081075043	72.0159410893684	1
1129.45630280394	2.00828734412789	9	object_onset	1	switch	0.9	71	19	52	n/a	NaN	NaN	NaN	NaN	NaN	NaN	NaN	NaN	NaN	NaN	NaN
1134.59045646642	2.00823678413872	12	object_onset	2	switch	0.458911756223351	72	18	54	n/a	NaN	NaN	NaN	NaN	NaN	NaN	NaN	NaN	NaN	NaN	NaN
1140.19311226928	2.0083388639614	12	object_onset	2	stay	0	72	18	54	n/a	NaN	NaN	NaN	NaN	NaN	NaN	NaN	NaN	NaN	NaN	NaN
1146.49325217295	2.00816030439455	10	object_onset	2	stay	0.458911756223351	50	5	45	n/a	NaN	NaN	NaN	NaN	NaN	NaN	NaN	NaN	NaN	NaN	NaN
1150.90529074194	5.55438581551425	10	choice	2	n/a	NaN	NaN	NaN	NaN	d	2	8	0.569209978830308	1.26	34.0707805259635	34.0707805259635	38.7004681213976	1.77635683940025e-15	1156.44840137917	5.54311063722707	1
1160.71630518476	2.00830590398982	2	object_onset	1	switch	1.26	5	16	-11	n/a	NaN	NaN	NaN	NaN	NaN	NaN	NaN	NaN	NaN	NaN	NaN
1168.39280468586	2.0080806245096	12	object_onset	1	stay	0.814984662432368	18	72	-54	n/a	NaN	NaN	NaN	NaN	NaN	NaN	NaN	NaN	NaN	NaN	NaN
1175.38260214543	2.00839710386936	8	object_onset	1	stay	0.524785670536077	44	16	28	n/a	NaN	NaN	NaN	NaN	NaN	NaN	NaN	NaN	NaN	NaN	NaN
1180.0219353179	7.38032438978553	8	choice	1	n/a	NaN	NaN	NaN	NaN	d	2	5	0.853814968245462	1.20747670784989	27.2811430344322	38.7004681213976	13.5499782611421	0	1187.39091764949	7.36898233159445	1
1190.77610762988	2.00826494419016	5	object_onset	2	switch	0.853814968245462	3	71	-68	n/a	NaN	NaN	NaN	NaN	NaN	NaN	NaN	NaN	NaN	NaN	NaN
1196.27861514513	2.00834910396952	2	object_onset	2	stay	0.853814968245462	16	5	11	n/a	NaN	NaN	NaN	NaN	NaN	NaN	NaN	NaN	NaN	NaN	NaN
1203.19701594173	2.00848606380168	6	object_onset	2	stay	0.524785670536077	13	44	-31	n/a	NaN	NaN	NaN	NaN	NaN	NaN	NaN	NaN	NaN	NaN	NaN
1208.08153168345	2.00812510447577	10	object_onset	2	stay	1.08747413762351	50	5	45	n/a	NaN	NaN	NaN	NaN	NaN	NaN	NaN	NaN	NaN	NaN	NaN
1213.83739583229	2.00825342407916	7	object_onset	1	switch	1.08747413762351	90	2	88	n/a	NaN	NaN	NaN	NaN	NaN	NaN	NaN	NaN	NaN	NaN	NaN
1220.61140970618	2.00817630428355	6	object_onset	1	stay	0.763675323681471	44	13	31	n/a	NaN	NaN	NaN	NaN	NaN	NaN	NaN	NaN	NaN	NaN	NaN
1225.54572631221	2.00820158433635	9	object_onset	2	switch	0.458911756223351	19	71	-52	n/a	NaN	NaN	NaN	NaN	NaN	NaN	NaN	NaN	NaN	NaN	NaN
1230.54229943885	37.6490048338892	9	choice	2	n/a	NaN	NaN	NaN	NaN	d	1	6	0.458911756223351	1.08747413762351	5.80500911870512	25.481413184806	27.2811430344321	70.1156602958224	1268.18099293252	37.6386934936745	1
1273.48375715117	2.00825854414143	9	object_onset	2	stay	0	19	71	-52	n/a	NaN	NaN	NaN	NaN	NaN	NaN	NaN	NaN	NaN	NaN	NaN
1278.643794604	2.00809118442703	6	object_onset	2	stay	0.458911756223351	13	44	-31	n/a	NaN	NaN	NaN	NaN	NaN	NaN	NaN	NaN	NaN	NaN	NaN
1285.26753612643	6.47600932605565	6	choice	2	n/a	NaN	NaN	NaN	NaN	d	11	3	0.458911756223351	0.9	37.0335154537144	86.800615681217	32.5937547140354	40.5840886391862	1291.73225331411	6.46471718768589	1
1296.76711340714	2.00835966400336	11	object_onset	1	switch	0.9	3	100	-97	n/a	NaN	NaN	NaN	NaN	NaN	NaN	NaN	NaN	NaN	NaN	NaN
1302.80164742086	13.1772364596836	11	choice	1	n/a	NaN	NaN	NaN	NaN	d	8	4	0.853814968245462	1.27914033631967	40.5840886391862	11.0161641725979	83.8378807534661	98.3269133966143	1315.96776710195	13.1661196810892	1
1319.08704239293	2.00819390430115	9	object_onset	1	stay	0.814984662432368	71	19	52	n/a	NaN	NaN	NaN	NaN	NaN	NaN	NaN	NaN	NaN	NaN	NaN
1324.21937077888	2.0080787044717	1	object_onset	2	switch	1.08747413762351	44	1	43	n/a	NaN	NaN	NaN	NaN	NaN	NaN	NaN	NaN	NaN	NaN	NaN
1329.24950512103	2.00822718418203	12	object_onset	2	stay	0.763675323681471	72	18	54	n/a	NaN	NaN	NaN	NaN	NaN	NaN	NaN	NaN	NaN	NaN	NaN
1336.00637086784	2.00825086410623	4	object_onset	1	switch	1.08747413762351	14	2	12	n/a	NaN	NaN	NaN	NaN	NaN	NaN	NaN	NaN	NaN	NaN	NaN
1341.07376913843	2.00828030402772	10	object_onset	2	switch	1.53792067415716	50	5	45	n/a	NaN	NaN	NaN	NaN	NaN	NaN	NaN	NaN	NaN	NaN	NaN
1346.21808246127	2.00828862411436	4	object_onset	2	stay	1.53792067415716	2	14	-12	n/a	NaN	NaN	NaN	NaN	NaN	NaN	NaN	NaN	NaN	NaN	NaN
1351.97742660344	2.00809790438507	1	object_onset	2	stay	1.08747413762351	44	1	43	n/a	NaN	NaN	NaN	NaN	NaN	NaN	NaN	NaN	NaN	NaN	NaN
1356.87931543181	2.00812670437153	2	object_onset	1	switch	0.524785670536077	5	16	-11	n/a	NaN	NaN	NaN	NaN	NaN	NaN	NaN	NaN	NaN	NaN	NaN
1362.18976315565	2.008111984469	2	object_onset	2	switch	0	16	5	11	n/a	NaN	NaN	NaN	NaN	NaN	NaN	NaN	NaN	NaN	NaN	NaN
1368.78765640769	2.00825054419693	5	object_onset	2	stay	0.853814968245462	3	71	-68	n/a	NaN	NaN	NaN	NaN	NaN	NaN	NaN	NaN	NaN	NaN	NaN
1374.17631390155	2.00870590331033	11	object_onset	2	stay	1.20747670784989	100	3	97	n/a	NaN	NaN	NaN	NaN	NaN	NaN	NaN	NaN	NaN	NaN	NaN
1379.38357558358	8.83271808119025	11	choice	2	n/a	NaN	NaN	NaN	NaN	d	10	2	0.524785670536077	0.853814968245462	49.7671002275026	83.8378807534661	1.88362051778864	1.88362051778864	1388.20437016769	8.82079458411317	1
1393.93890347739	2.00827134412248	9	object_onset	2	stay	0.814984662432368	19	71	-52	n/a	NaN	NaN	NaN	NaN	NaN	NaN	NaN	NaN	NaN	NaN	NaN
1401.13070534915	2.00819230417255	2	object_onset	1	switch	0.9	5	16	-11	n/a	NaN	NaN	NaN	NaN	NaN	NaN	NaN	NaN	NaN	NaN	NaN
1408.81601251324	2.00840446387883	3	object_onset	2	switch	0.36	50	11	39	n/a	NaN	NaN	NaN	NaN	NaN	NaN	NaN	NaN	NaN	NaN	NaN
1415.68684476125	2.00825054419693	1	object_onset	1	switch	0.458911756223351	1	44	-43	n/a	NaN	NaN	NaN	NaN	NaN	NaN	NaN	NaN	NaN	NaN	NaN
1422.19326586893	62.5174076466355	1	choice	1	n/a	NaN	NaN	NaN	NaN	d	9	6	0.9	1.08747413762351	42.8345172613902	70.1156602958224	31.2864223035111	25.481413184806	1484.69986681629	62.5066009473521	1
1488.10562891723	2.00841150386259	5	object_onset	1	stay	1.26	71	3	68	n/a	NaN	NaN	NaN	NaN	NaN	NaN	NaN	NaN	NaN	NaN	NaN
1493.8931963651	12.5208550000098	5	choice	1	n/a	NaN	NaN	NaN	NaN	d	4	7	0.524785670536077	0.569209978830308	56.8490675010205	19.4955359903515	0.93905438200614	0.72290938457687	1506.40310930612	12.5099129410228	1
1510.15643425973	2.00816318427678	8	object_onset	2	switch	0.853814968245462	16	44	-28	n/a	NaN	NaN	NaN	NaN	NaN	NaN	NaN	NaN	NaN	NaN	NaN
1515.64907043381	2.00831038411707	3	object_onset	1	switch	0.9	11	50	-39	n/a	NaN	NaN	NaN	NaN	NaN	NaN	NaN	NaN	NaN	NaN	NaN
