onset	duration	object	trial_type	map	stayswitch	distance	value	counterfactual_value	value_diff	choicetype	object1	object2	chosen_distance	unchosen_distance	chosen_value	unchosen_value	counterfactual_chosen_value	counterfactual_unchosen_value	button	response_time	cr
8.76502157119103	2.00862078345381	7	object_onset	2	n/a	NaN	NaN	NaN	NaN	n/a	NaN	NaN	NaN	NaN	NaN	NaN	NaN	NaN	NaN	NaN	NaN
14.724794128444	2.00818974419963	2	object_onset	1	switch	1.27914033631967	5	16	-11	n/a	NaN	NaN	NaN	NaN	NaN	NaN	NaN	NaN	NaN	NaN	NaN
19.1059681165498	5.7708589999238	2	choice	1	n/a	NaN	NaN	NaN	NaN	d	11	1	0.524785670536077	0.853814968245462	4.13404913999263	1.88362051778864	28.3236873757602	83.8378807534661	24.8588268310996	5.7528587145498	1
28.4585152796935	2.00817438424565	5	object_onset	2	switch	0.853814968245462	3	71	-68	n/a	NaN	NaN	NaN	NaN	NaN	NaN	NaN	NaN	NaN	NaN	NaN
33.5924503825372	2.00836574390996	4	object_onset	1	switch	0.524785670536077	14	2	12	n/a	NaN	NaN	NaN	NaN	NaN	NaN	NaN	NaN	NaN	NaN	NaN
38.6565171395196	2.0081871842267	2	object_onset	1	stay	0.569209978830308	5	16	-11	n/a	NaN	NaN	NaN	NaN	NaN	NaN	NaN	NaN	NaN	NaN	NaN
45.892316046753	2.00832734408323	12	object_onset	2	switch	0.814984662432368	72	18	54	n/a	NaN	NaN	NaN	NaN	NaN	NaN	NaN	NaN	NaN	NaN	NaN
53.6373539762571	2.00850846373942	6	object_onset	1	switch	0.648999229583518	44	13	31	n/a	NaN	NaN	NaN	NaN	NaN	NaN	NaN	NaN	NaN	NaN	NaN
59.0025055952137	2.00879006308969	6	object_onset	2	switch	0	13	44	-31	n/a	NaN	NaN	NaN	NaN	NaN	NaN	NaN	NaN	NaN	NaN	NaN
65.8576345134061	9.10821387218311	6	choice	2	n/a	NaN	NaN	NaN	NaN	d	8	9	0.458911756223351	0.814984662432368	5.80500911870512	2.96273492775089	27.2811430344321	7.105427357601e-15	74.9552087259945	9.09757421258837	1
78.9695808584802	2.0083055839641	8	object_onset	1	switch	0.814984662432368	44	16	28	n/a	NaN	NaN	NaN	NaN	NaN	NaN	NaN	NaN	NaN	NaN	NaN
84.8066627712687	2.00813854439184	10	object_onset	2	switch	0.569209978830308	50	5	45	n/a	NaN	NaN	NaN	NaN	NaN	NaN	NaN	NaN	NaN	NaN	NaN
89.9613485542359	2.00845950376242	12	object_onset	1	switch	0.458911756223351	18	72	-54	n/a	NaN	NaN	NaN	NaN	NaN	NaN	NaN	NaN	NaN	NaN	NaN
95.4290410962421	2.00836862390861	8	object_onset	2	switch	0.524785670536077	16	44	-28	n/a	NaN	NaN	NaN	NaN	NaN	NaN	NaN	NaN	NaN	NaN	NaN
100.317767709959	2.00830718397629	10	object_onset	2	stay	0.569209978830308	50	5	45	n/a	NaN	NaN	NaN	NaN	NaN	NaN	NaN	NaN	NaN	NaN	NaN
107.286010330892	2.00822558416985	6	object_onset	2	stay	1.08747413762351	13	44	-31	n/a	NaN	NaN	NaN	NaN	NaN	NaN	NaN	NaN	NaN	NaN	NaN
112.733407871914	2.0082540641306	4	object_onset	2	stay	0.458911756223351	2	14	-12	n/a	NaN	NaN	NaN	NaN	NaN	NaN	NaN	NaN	NaN	NaN	NaN
117.606863154797	2.00819838431198	3	object_onset	2	stay	0.763675323681471	50	11	39	n/a	NaN	NaN	NaN	NaN	NaN	NaN	NaN	NaN	NaN	NaN	NaN
124.589715667767	5.78205801849253	3	choice	2	n/a	NaN	NaN	NaN	NaN	d	4	12	0.458911756223351	0.763675323681471	22.0921244654867	48.5598131691118	6.8839714578754	3.02583024744705	130.36068890756	5.77097323979251	1
134.667185598984	2.00927934225183	10	object_onset	1	switch	0.9	5	50	-45	n/a	NaN	NaN	NaN	NaN	NaN	NaN	NaN	NaN	NaN	NaN	NaN
141.198734338512	2.00849534361623	3	object_onset	2	switch	0.9	50	11	39	n/a	NaN	NaN	NaN	NaN	NaN	NaN	NaN	NaN	NaN	NaN	NaN
147.357876752852	2.00825310416985	7	object_onset	1	switch	1.08747413762351	90	2	88	n/a	NaN	NaN	NaN	NaN	NaN	NaN	NaN	NaN	NaN	NaN	NaN
154.85779387306	2.00822974415496	11	object_onset	2	switch	1.26	100	3	97	n/a	NaN	NaN	NaN	NaN	NaN	NaN	NaN	NaN	NaN	NaN	NaN
160.007497905637	2.00822910421994	2	object_onset	1	switch	0.853814968245462	5	16	-11	n/a	NaN	NaN	NaN	NaN	NaN	NaN	NaN	NaN	NaN	NaN	NaN
165.418075037305	2.0084847836988	3	object_onset	1	stay	0.36	11	50	-39	n/a	NaN	NaN	NaN	NaN	NaN	NaN	NaN	NaN	NaN	NaN	NaN
173.06205076084	2.0082895840751	8	object_onset	1	stay	0.9	44	16	28	n/a	NaN	NaN	NaN	NaN	NaN	NaN	NaN	NaN	NaN	NaN	NaN
178.640507890261	2.0081910243025	12	object_onset	2	switch	0.524785670536077	72	18	54	n/a	NaN	NaN	NaN	NaN	NaN	NaN	NaN	NaN	NaN	NaN	NaN
185.33021120599	2.0083151840372	8	object_onset	2	stay	0.524785670536077	16	44	-28	n/a	NaN	NaN	NaN	NaN	NaN	NaN	NaN	NaN	NaN	NaN	NaN
191.030333701754	2.00810238451231	1	object_onset	2	stay	1.27914033631967	44	1	43	n/a	NaN	NaN	NaN	NaN	NaN	NaN	NaN	NaN	NaN	NaN	NaN
197.446241703234	2.00821054424159	1	object_onset	2	stay	0	44	1	43	n/a	NaN	NaN	NaN	NaN	NaN	NaN	NaN	NaN	NaN	NaN	NaN
203.690684753936	2.00830430397764	12	object_onset	1	switch	0.763675323681471	18	72	-54	n/a	NaN	NaN	NaN	NaN	NaN	NaN	NaN	NaN	NaN	NaN	NaN
209.425779022509	2.00815838435665	11	object_onset	2	switch	0.36	100	3	97	n/a	NaN	NaN	NaN	NaN	NaN	NaN	NaN	NaN	NaN	NaN	NaN
216.737298104446	2.00819550419692	8	object_onset	2	stay	0.853814968245462	16	44	-28	n/a	NaN	NaN	NaN	NaN	NaN	NaN	NaN	NaN	NaN	NaN	NaN
223.684223326272	2.00835934397765	6	object_onset	2	stay	0.814984662432368	13	44	-31	n/a	NaN	NaN	NaN	NaN	NaN	NaN	NaN	NaN	NaN	NaN	NaN
229.639277172624	2.00809406442568	7	object_onset	2	stay	0.763675323681471	2	90	-88	n/a	NaN	NaN	NaN	NaN	NaN	NaN	NaN	NaN	NaN	NaN	NaN
235.248617122648	2.0083545439411	12	object_onset	2	stay	0.9	72	18	54	n/a	NaN	NaN	NaN	NaN	NaN	NaN	NaN	NaN	NaN	NaN	NaN
240.276901868405	2.00855550356209	1	object_onset	2	stay	0.763675323681471	44	1	43	n/a	NaN	NaN	NaN	NaN	NaN	NaN	NaN	NaN	NaN	NaN	NaN
245.335125756566	2.00812158442568	2	object_onset	2	stay	0.524785670536077	16	5	11	n/a	NaN	NaN	NaN	NaN	NaN	NaN	NaN	NaN	NaN	NaN	NaN
250.70553336537	2.00825822423212	11	object_onset	1	switch	0.853814968245462	3	100	-97	n/a	NaN	NaN	NaN	NaN	NaN	NaN	NaN	NaN	NaN	NaN	NaN
255.771831158083	2.00820990430657	9	object_onset	2	switch	0.814984662432368	19	71	-52	n/a	NaN	NaN	NaN	NaN	NaN	NaN	NaN	NaN	NaN	NaN	NaN
260.664463684312	2.0081103843404	11	object_onset	1	switch	0.814984662432368	3	100	-97	n/a	NaN	NaN	NaN	NaN	NaN	NaN	NaN	NaN	NaN	NaN	NaN
267.919659674284	2.00848798372317	5	object_onset	1	stay	1.20747670784989	71	3	68	n/a	NaN	NaN	NaN	NaN	NaN	NaN	NaN	NaN	NaN	NaN	NaN
274.254894230631	2.00831134407781	11	object_onset	1	stay	1.20747670784989	3	100	-97	n/a	NaN	NaN	NaN	NaN	NaN	NaN	NaN	NaN	NaN	NaN	NaN
280.56861778826	2.00835422403179	3	object_onset	2	switch	0.524785670536077	50	11	39	n/a	NaN	NaN	NaN	NaN	NaN	NaN	NaN	NaN	NaN	NaN	NaN
286.972741492325	2.00821086426731	12	object_onset	2	stay	0.458911756223351	72	18	54	n/a	NaN	NaN	NaN	NaN	NaN	NaN	NaN	NaN	NaN	NaN	NaN
291.993134413264	14.4832813120447	12	choice	2	n/a	NaN	NaN	NaN	NaN	d	2	5	0.9	0.814984662432368	69.7128832525924	56.1629049914503	52.9909262905921	12.9906848652376	306.465264066705	14.4721296534408	-1
310.166751359822	2.00823006418068	2	object_onset	1	switch	0.814984662432368	5	16	-11	n/a	NaN	NaN	NaN	NaN	NaN	NaN	NaN	NaN	NaN	NaN	NaN
315.35501467844	2.0092575821327	5	object_onset	1	stay	0.853814968245462	71	3	68	n/a	NaN	NaN	NaN	NaN	NaN	NaN	NaN	NaN	NaN	NaN	NaN
320.314806755632	2.00821182422806	1	object_onset	1	stay	1.26	1	44	-43	n/a	NaN	NaN	NaN	NaN	NaN	NaN	NaN	NaN	NaN	NaN	NaN
326.362684423686	2.00821886421181	12	object_onset	1	stay	0.763675323681471	18	72	-54	n/a	NaN	NaN	NaN	NaN	NaN	NaN	NaN	NaN	NaN	NaN	NaN
333.027918666368	2.00827678421047	5	object_onset	1	stay	0.9	71	3	68	n/a	NaN	NaN	NaN	NaN	NaN	NaN	NaN	NaN	NaN	NaN	NaN
338.673836146249	15.7935783163412	5	choice	1	n/a	NaN	NaN	NaN	NaN	d	3	8	0.853814968245462	0.814984662432368	27.2811430344322	59.8748977484675	13.5499782611421	47.6207587871056	354.456391763757	15.7825556175085	-1
358.549405985163	2.00828926404938	4	object_onset	2	switch	0.524785670536077	2	14	-12	n/a	NaN	NaN	NaN	NaN	NaN	NaN	NaN	NaN	NaN	NaN	NaN
364.327756170765	2.00827582413331	9	object_onset	1	switch	0.9	71	19	52	n/a	NaN	NaN	NaN	NaN	NaN	NaN	NaN	NaN	NaN	NaN	NaN
368.445140585303	11.6257347986102	9	choice	1	n/a	NaN	NaN	NaN	NaN	d	12	7	0.458911756223351	0.458911756223351	52.9909262905921	19.4955359903515	53.3206308004961	17.1151618366732	380.059618125553	11.6144775402499	1
385.469230139046	2.0081398243783	6	object_onset	2	switch	0.458911756223351	13	44	-31	n/a	NaN	NaN	NaN	NaN	NaN	NaN	NaN	NaN	NaN	NaN	NaN
392.556726291077	2.00828510418069	2	object_onset	2	stay	0.524785670536077	16	5	11	n/a	NaN	NaN	NaN	NaN	NaN	NaN	NaN	NaN	NaN	NaN	NaN
397.522776916274	2.00830078404397	2	object_onset	2	stay	0	16	5	11	n/a	NaN	NaN	NaN	NaN	NaN	NaN	NaN	NaN	NaN	NaN	NaN
403.908046256518	14.2937565559987	2	choice	2	n/a	NaN	NaN	NaN	NaN	d	5	3	0.36	0.853814968245462	34.0707805259635	13.5499782611421	6.10671340736224	65.9816111558298	418.19096123334	14.2829149768222	1
421.358431631816	2.0081199844135	8	object_onset	1	switch	1.20747670784989	44	16	28	n/a	NaN	NaN	NaN	NaN	NaN	NaN	NaN	NaN	NaN	NaN	NaN
428.846319655073	2.00831550406292	9	object_onset	2	switch	0.36	19	71	-52	n/a	NaN	NaN	NaN	NaN	NaN	NaN	NaN	NaN	NaN	NaN	NaN
433.794232075103	2.00825790408999	4	object_onset	1	switch	0.9	14	2	12	n/a	NaN	NaN	NaN	NaN	NaN	NaN	NaN	NaN	NaN	NaN	NaN
440.574043377885	2.00865246332251	7	object_onset	1	stay	1.08747413762351	90	2	88	n/a	NaN	NaN	NaN	NaN	NaN	NaN	NaN	NaN	NaN	NaN	NaN
445.585489755846	24.9170094394358	7	choice	1	n/a	NaN	NaN	NaN	NaN	d	9	12	0.458911756223351	0.9	19.4955359903515	72.4864622809436	17.1151618366732	70.4357926371693	470.491725775879	24.9062360200332	1
475.433564927545	2.00821406429168	4	object_onset	2	switch	1.08747413762351	2	14	-12	n/a	NaN	NaN	NaN	NaN	NaN	NaN	NaN	NaN	NaN	NaN	NaN
482.626588557032	2.008236464113	7	object_onset	2	stay	1.08747413762351	2	90	-88	n/a	NaN	NaN	NaN	NaN	NaN	NaN	NaN	NaN	NaN	NaN	NaN
488.149463393027	2.0082559841685	1	object_onset	2	stay	1.53792067415716	44	1	43	n/a	NaN	NaN	NaN	NaN	NaN	NaN	NaN	NaN	NaN	NaN	NaN
494.06434099644	2.00831550406292	10	object_onset	1	switch	1.08747413762351	5	50	-45	n/a	NaN	NaN	NaN	NaN	NaN	NaN	NaN	NaN	NaN	NaN	NaN
500.126413517282	2.00834174396005	1	object_onset	1	stay	1.08747413762351	1	44	-43	n/a	NaN	NaN	NaN	NaN	NaN	NaN	NaN	NaN	NaN	NaN	NaN
505.43336428795	2.0082284641685	1	object_onset	2	switch	0	44	1	43	n/a	NaN	NaN	NaN	NaN	NaN	NaN	NaN	NaN	NaN	NaN	NaN
511.122674004524	11.4278231785866	1	choice	2	n/a	NaN	NaN	NaN	NaN	d	12	6	0.9	0.763675323681471	31.2864223035111	27.8392176156901	42.8345172613902	17.1247340052303	522.539732403704	11.41705839918	-1
526.87095768773	2.00825694424566	3	object_onset	1	switch	0.458911756223351	11	50	-39	n/a	NaN	NaN	NaN	NaN	NaN	NaN	NaN	NaN	NaN	NaN	NaN
532.200058815884	2.00838718388695	4	object_onset	1	stay	0.763675323681471	14	2	12	n/a	NaN	NaN	NaN	NaN	NaN	NaN	NaN	NaN	NaN	NaN	NaN
537.033414015896	2.00829086406156	5	object_onset	2	switch	0.524785670536077	3	71	-68	n/a	NaN	NaN	NaN	NaN	NaN	NaN	NaN	NaN	NaN	NaN	NaN
544.467229182948	2.00833342398982	12	object_onset	2	stay	0.9	72	18	54	n/a	NaN	NaN	NaN	NaN	NaN	NaN	NaN	NaN	NaN	NaN	NaN
549.651161629823	2.00820126419421	5	object_onset	2	stay	0.9	3	71	-68	n/a	NaN	NaN	NaN	NaN	NaN	NaN	NaN	NaN	NaN	NaN	NaN
555.158299856121	2.0080886244541	7	object_onset	1	switch	0.569209978830308	90	2	88	n/a	NaN	NaN	NaN	NaN	NaN	NaN	NaN	NaN	NaN	NaN	NaN
561.620613528416	2.00817150436342	10	object_onset	1	stay	1.08747413762351	5	50	-45	n/a	NaN	NaN	NaN	NaN	NaN	NaN	NaN	NaN	NaN	NaN	NaN
567.745948967757	2.00838302390184	7	object_onset	2	switch	1.08747413762351	2	90	-88	n/a	NaN	NaN	NaN	NaN	NaN	NaN	NaN	NaN	NaN	NaN	NaN
572.121847766102	11.9534538493026	7	choice	2	n/a	NaN	NaN	NaN	NaN	d	10	6	1.08747413762351	0.763675323681471	48.3436681716825	11.3101527179681	85.4771471461812	46.7766790247836	584.064189316821	11.942341550719	-1
589.689511956181	2.00833054399118	11	object_onset	1	switch	1.26	3	100	-97	n/a	NaN	NaN	NaN	NaN	NaN	NaN	NaN	NaN	NaN	NaN	NaN
595.256714387098	2.00831102405209	10	object_onset	2	switch	0.524785670536077	50	5	45	n/a	NaN	NaN	NaN	NaN	NaN	NaN	NaN	NaN	NaN	NaN	NaN
600.43873771769	2.0085577435093	4	object_onset	1	switch	1.53792067415716	14	2	12	n/a	NaN	NaN	NaN	NaN	NaN	NaN	NaN	NaN	NaN	NaN	NaN
605.568632508279	2.00828894402366	5	object_onset	1	stay	0.524785670536077	71	3	68	n/a	NaN	NaN	NaN	NaN	NaN	NaN	NaN	NaN	NaN	NaN	NaN
611.244076011353	2.00811038445681	8	object_onset	1	stay	0.853814968245462	44	16	28	n/a	NaN	NaN	NaN	NaN	NaN	NaN	NaN	NaN	NaN	NaN	NaN
617.539226804744	2.0082047842443	12	object_onset	1	stay	0.524785670536077	18	72	-54	n/a	NaN	NaN	NaN	NaN	NaN	NaN	NaN	NaN	NaN	NaN	NaN
624.684870365076	2.00825886416715	9	object_onset	2	switch	0.458911756223351	19	71	-52	n/a	NaN	NaN	NaN	NaN	NaN	NaN	NaN	NaN	NaN	NaN	NaN
629.984235870303	12.3216448224848	9	choice	2	n/a	NaN	NaN	NaN	NaN	d	2	3	0.648999229583518	0.9	31.2285063350093	2.84227419095423	59.8748977484675	65.9816111558297	642.294731594156	12.3104957238538	1
645.618907291675	2.00817214441486	12	object_onset	1	switch	0.458911756223351	18	72	-54	n/a	NaN	NaN	NaN	NaN	NaN	NaN	NaN	NaN	NaN	NaN	NaN
650.472858292167	25.0208738798974	12	choice	1	n/a	NaN	NaN	NaN	NaN	d	7	4	0.9	1.08747413762351	72.4864622809436	3.85814121042835	70.4357926371693	70.6519376345985	675.482921632822	25.0100633406546	1
678.649876512238	2.00859550351743	9	object_onset	1	stay	0.458911756223351	71	19	52	n/a	NaN	NaN	NaN	NaN	NaN	NaN	NaN	NaN	NaN	NaN	NaN
684.441282352782	2.00820702419151	7	object_onset	2	switch	0.458911756223351	2	90	-88	n/a	NaN	NaN	NaN	NaN	NaN	NaN	NaN	NaN	NaN	NaN	NaN
689.514219172765	2.00821982417256	6	object_onset	1	switch	0.763675323681471	44	13	31	n/a	NaN	NaN	NaN	NaN	NaN	NaN	NaN	NaN	NaN	NaN	NaN
695.344244139036	21.8329446407733	6	choice	1	n/a	NaN	NaN	NaN	NaN	d	7	8	0.763675323681471	0.814984662432368	46.7766790247836	7.105427357601e-15	11.3101527179681	2.96273492775089	717.166602560203	21.8223584211664	1
720.086679193657	2.00914750236552	11	object_onset	2	switch	0.9	100	3	97	n/a	NaN	NaN	NaN	NaN	NaN	NaN	NaN	NaN	NaN	NaN	NaN
726.595199177274	18.8002810233738	11	choice	2	n/a	NaN	NaN	NaN	NaN	d	3	10	0.524785670536077	0.524785670536077	49.7671002275025	49.7671002275026	7.99033392515088	1.88362051778864	745.384304542211	18.7891053649364	1
749.578367849579	2.00854110356886	11	object_onset	2	stay	0	100	3	97	n/a	NaN	NaN	NaN	NaN	NaN	NaN	NaN	NaN	NaN	NaN	NaN
757.220992535702	2.00825662421994	11	object_onset	1	switch	0	3	100	-97	n/a	NaN	NaN	NaN	NaN	NaN	NaN	NaN	NaN	NaN	NaN	NaN
763.642395246658	2.00881950301118	5	object_onset	2	switch	1.20747670784989	3	71	-68	n/a	NaN	NaN	NaN	NaN	NaN	NaN	NaN	NaN	NaN	NaN	NaN
769.344876777846	11.1597724932944	5	choice	2	n/a	NaN	NaN	NaN	NaN	d	8	7	0.569209978830308	0.853814968245462	0.72290938457687	13.5499782611421	19.4955359903515	27.2811430344322	780.493569932412	11.148693154566	1
783.504810550832	2.00825534411706	6	object_onset	1	switch	0.36	44	13	31	n/a	NaN	NaN	NaN	NaN	NaN	NaN	NaN	NaN	NaN	NaN	NaN
788.570721784257	2.008220464224	8	object_onset	2	switch	0.814984662432368	16	44	-28	n/a	NaN	NaN	NaN	NaN	NaN	NaN	NaN	NaN	NaN	NaN	NaN
795.995421768865	2.00816542422399	7	object_onset	1	switch	0.524785670536077	90	2	88	n/a	NaN	NaN	NaN	NaN	NaN	NaN	NaN	NaN	NaN	NaN	NaN
803.236823225277	2.00843038386665	2	object_onset	2	switch	1.27914033631967	16	5	11	n/a	NaN	NaN	NaN	NaN	NaN	NaN	NaN	NaN	NaN	NaN	NaN
809.871197687346	2.00836190395057	3	object_onset	1	switch	0.36	11	50	-39	n/a	NaN	NaN	NaN	NaN	NaN	NaN	NaN	NaN	NaN	NaN	NaN
815.534097214579	6.47582468634937	3	choice	1	n/a	NaN	NaN	NaN	NaN	d	10	4	0.763675323681471	0.9	3.02583024744705	6.10671340736224	48.5598131691118	2.1316282072803e-14	821.998865922214	6.46476870763581	1
826.832911040867	2.00828030402772	8	object_onset	2	switch	0.9	16	44	-28	n/a	NaN	NaN	NaN	NaN	NaN	NaN	NaN	NaN	NaN	NaN	NaN
832.608298352105	2.00894046283793	2	object_onset	1	switch	1.20747670784989	5	16	-11	n/a	NaN	NaN	NaN	NaN	NaN	NaN	NaN	NaN	NaN	NaN	NaN
839.168354556779	2.00834654399659	9	object_onset	1	stay	0.9	71	19	52	n/a	NaN	NaN	NaN	NaN	NaN	NaN	NaN	NaN	NaN	NaN	NaN
844.009462701855	2.0084175838856	9	object_onset	1	stay	0	71	19	52	n/a	NaN	NaN	NaN	NaN	NaN	NaN	NaN	NaN	NaN	NaN	NaN
849.118841371848	2.00834462395869	11	object_onset	1	stay	0.814984662432368	3	100	-97	n/a	NaN	NaN	NaN	NaN	NaN	NaN	NaN	NaN	NaN	NaN	NaN
855.058653007378	8.43637708213646	11	choice	1	n/a	NaN	NaN	NaN	NaN	d	5	9	0.814984662432368	1.20747670784989	67.8652316736184	67.8652316736184	80.9956065625119	97.3878590146082	863.483941470855	8.42528846347705	1
866.468280060915	2.00828286411706	2	object_onset	2	switch	0.853814968245462	16	5	11	n/a	NaN	NaN	NaN	NaN	NaN	NaN	NaN	NaN	NaN	NaN	NaN
874.088219030644	2.00828222406562	7	object_onset	1	switch	1.27914033631967	90	2	88	n/a	NaN	NaN	NaN	NaN	NaN	NaN	NaN	NaN	NaN	NaN	NaN
880.956876562792	2.00815262435935	8	object_onset	1	stay	0.524785670536077	44	16	28	n/a	NaN	NaN	NaN	NaN	NaN	NaN	NaN	NaN	NaN	NaN	NaN
886.307256370084	2.00812286441214	2	object_onset	2	switch	1.20747670784989	16	5	11	n/a	NaN	NaN	NaN	NaN	NaN	NaN	NaN	NaN	NaN	NaN	NaN
894.110800107243	2.00857694353908	5	object_onset	1	switch	0.853814968245462	71	3	68	n/a	NaN	NaN	NaN	NaN	NaN	NaN	NaN	NaN	NaN	NaN	NaN
899.903008186258	2.00845214375295	3	object_onset	1	stay	0.814984662432368	11	50	-39	n/a	NaN	NaN	NaN	NaN	NaN	NaN	NaN	NaN	NaN	NaN	NaN
907.017446366488	2.00829374406021	1	object_onset	1	stay	0.458911756223351	1	44	-43	n/a	NaN	NaN	NaN	NaN	NaN	NaN	NaN	NaN	NaN	NaN	NaN
913.734393790015	2.0082147042267	6	object_onset	2	switch	0.9	13	44	-31	n/a	NaN	NaN	NaN	NaN	NaN	NaN	NaN	NaN	NaN	NaN	NaN
919.920763992122	2.00831806403585	9	object_onset	2	stay	0.458911756223351	19	71	-52	n/a	NaN	NaN	NaN	NaN	NaN	NaN	NaN	NaN	NaN	NaN	NaN
925.856174676213	2.00827646406833	10	object_onset	1	switch	0.763675323681471	5	50	-45	n/a	NaN	NaN	NaN	NaN	NaN	NaN	NaN	NaN	NaN	NaN	NaN
930.573613298708	48.4267255807063	10	choice	1	n/a	NaN	NaN	NaN	NaN	d	6	1	1.08747413762351	1.08747413762351	4.13404913999263	38.7004681213976	5.74709315020331	37.0335154537144	978.989718739758	48.4161054410506	1
981.956862482824	2.00828094407916	9	object_onset	1	stay	0.763675323681471	71	19	52	n/a	NaN	NaN	NaN	NaN	NaN	NaN	NaN	NaN	NaN	NaN	NaN
988.327093451982	2.00832990405615	7	object_onset	1	stay	0.458911756223351	90	2	88	n/a	NaN	NaN	NaN	NaN	NaN	NaN	NaN	NaN	NaN	NaN	NaN
995.907455217675	2.00821502425242	5	object_onset	2	switch	0.569209978830308	3	71	-68	n/a	NaN	NaN	NaN	NaN	NaN	NaN	NaN	NaN	NaN	NaN	NaN
1001.75106479798	2.00832990405615	3	object_onset	1	switch	0.814984662432368	11	50	-39	n/a	NaN	NaN	NaN	NaN	NaN	NaN	NaN	NaN	NaN	NaN	NaN
1007.69663354254	2.00838366383687	10	object_onset	2	switch	0.9	50	5	45	n/a	NaN	NaN	NaN	NaN	NaN	NaN	NaN	NaN	NaN	NaN	NaN
1013.22409428982	2.00816670421045	10	object_onset	1	switch	0	5	50	-45	n/a	NaN	NaN	NaN	NaN	NaN	NaN	NaN	NaN	NaN	NaN	NaN
1018.25361775304	2.00814814434852	9	object_onset	2	switch	0.763675323681471	19	71	-52	n/a	NaN	NaN	NaN	NaN	NaN	NaN	NaN	NaN	NaN	NaN	NaN
1023.92014703329	2.00825822423212	12	object_onset	2	stay	0.458911756223351	72	18	54	n/a	NaN	NaN	NaN	NaN	NaN	NaN	NaN	NaN	NaN	NaN	NaN
1030.97550308704	2.00829374406021	1	object_onset	1	switch	0.763675323681471	1	44	-43	n/a	NaN	NaN	NaN	NaN	NaN	NaN	NaN	NaN	NaN	NaN	NaN
1036.92950605543	2.00827294401824	4	object_onset	2	switch	1.08747413762351	2	14	-12	n/a	NaN	NaN	NaN	NaN	NaN	NaN	NaN	NaN	NaN	NaN	NaN
1043.06356019794	2.00846334383823	4	object_onset	1	switch	0	14	2	12	n/a	NaN	NaN	NaN	NaN	NaN	NaN	NaN	NaN	NaN	NaN	NaN
1047.75041103922	5.52053308056202	4	choice	1	n/a	NaN	NaN	NaN	NaN	d	1	5	0.524785670536077	1.08747413762351	56.8490675010205	13.2665927948019	0.93905438200614	42.8127200189084	1053.26025390031	5.50984286109451	1
1057.5104275	2.00827646406833	1	object_onset	2	switch	1.08747413762351	44	1	43	n/a	NaN	NaN	NaN	NaN	NaN	NaN	NaN	NaN	NaN	NaN	NaN
1063.00627102796	2.00826686411165	6	object_onset	1	switch	0.9	44	13	31	n/a	NaN	NaN	NaN	NaN	NaN	NaN	NaN	NaN	NaN	NaN	NaN
1068.8311840042	2.00837022392079	5	object_onset	2	switch	0.36	3	71	-68	n/a	NaN	NaN	NaN	NaN	NaN	NaN	NaN	NaN	NaN	NaN	NaN
1074.65037923132	2.0082876640372	10	object_onset	2	stay	1.27914033631967	50	5	45	n/a	NaN	NaN	NaN	NaN	NaN	NaN	NaN	NaN	NaN	NaN	NaN
1081.74811248365	2.00829118408728	3	object_onset	2	stay	0.9	50	11	39	n/a	NaN	NaN	NaN	NaN	NaN	NaN	NaN	NaN	NaN	NaN	NaN
1088.53001978237	2.00828638416715	9	object_onset	2	stay	0.648999229583518	19	71	-52	n/a	NaN	NaN	NaN	NaN	NaN	NaN	NaN	NaN	NaN	NaN	NaN
1095.80486629473	2.00820190424565	8	object_onset	1	switch	0.36	44	16	28	n/a	NaN	NaN	NaN	NaN	NaN	NaN	NaN	NaN	NaN	NaN	NaN
1100.97045349679	11.833105600439	8	choice	1	n/a	NaN	NaN	NaN	NaN	d	11	2	0.853814968245462	1.20747670784989	40.5840886391862	38.7004681213976	83.8378807534661	0	1112.79261927819	11.8221657813992	1
1118.60695883469	2.00838398386259	9	object_onset	1	stay	0.36	71	19	52	n/a	NaN	NaN	NaN	NaN	NaN	NaN	NaN	NaN	NaN	NaN	NaN
1124.09058510605	2.00832414405886	10	object_onset	1	stay	0.763675323681471	5	50	-45	n/a	NaN	NaN	NaN	NaN	NaN	NaN	NaN	NaN	NaN	NaN	NaN
1131.7751191518	2.00816094432957	4	object_onset	2	switch	1.53792067415716	2	14	-12	n/a	NaN	NaN	NaN	NaN	NaN	NaN	NaN	NaN	NaN	NaN	NaN
1136.41367312579	4.4643251884263	4	choice	2	n/a	NaN	NaN	NaN	NaN	d	6	10	0.458911756223351	1.53792067415716	11.5262977153973	48.5598131691118	29.5679244665883	9.13254365480929	1140.86924793106	4.45557480526622	1
1144.17981949472	2.0088217430748	1	object_onset	1	switch	1.08747413762351	1	44	-43	n/a	NaN	NaN	NaN	NaN	NaN	NaN	NaN	NaN	NaN	NaN	NaN
1149.53878776554	2.00822878419422	8	object_onset	2	switch	1.27914033631967	16	44	-28	n/a	NaN	NaN	NaN	NaN	NaN	NaN	NaN	NaN	NaN	NaN	NaN
1154.33325664012	6.96499974722974	8	choice	2	n/a	NaN	NaN	NaN	NaN	d	1	11	0.853814968245462	1.27914033631967	83.8378807534661	28.3236873757602	40.5840886391862	42.8345172613902	1161.28779944743	6.95454280730337	1
1166.78265545738	2.00817790429574	12	object_onset	1	switch	0.524785670536077	18	72	-54	n/a	NaN	NaN	NaN	NaN	NaN	NaN	NaN	NaN	NaN	NaN	NaN
1172.78109770035	2.00830398406833	3	object_onset	1	stay	0.458911756223351	11	50	-39	n/a	NaN	NaN	NaN	NaN	NaN	NaN	NaN	NaN	NaN	NaN	NaN
1178.81520387484	2.00833918398712	11	object_onset	2	switch	0.524785670536077	100	3	97	n/a	NaN	NaN	NaN	NaN	NaN	NaN	NaN	NaN	NaN	NaN	NaN
1186.11806953338	2.00816798431333	4	object_onset	1	switch	1.27914033631967	14	2	12	n/a	NaN	NaN	NaN	NaN	NaN	NaN	NaN	NaN	NaN	NaN	NaN
1191.17269598844	2.00826078420505	6	object_onset	1	stay	0.458911756223351	44	13	31	n/a	NaN	NaN	NaN	NaN	NaN	NaN	NaN	NaN	NaN	NaN	NaN
1198.67300734785	2.00839934381656	3	object_onset	2	switch	0.458911756223351	50	11	39	n/a	NaN	NaN	NaN	NaN	NaN	NaN	NaN	NaN	NaN	NaN	NaN
1204.27801066625	2.00820734421723	2	object_onset	1	switch	0.36	5	16	-11	n/a	NaN	NaN	NaN	NaN	NaN	NaN	NaN	NaN	NaN	NaN	NaN
1211.63649925799	2.00833310396411	6	object_onset	2	switch	0.524785670536077	13	44	-31	n/a	NaN	NaN	NaN	NaN	NaN	NaN	NaN	NaN	NaN	NaN	NaN
1219.24846352299	2.00825854414143	5	object_onset	1	switch	0.36	71	3	68	n/a	NaN	NaN	NaN	NaN	NaN	NaN	NaN	NaN	NaN	NaN	NaN
1224.29220807902	2.00841950380709	11	object_onset	2	switch	1.20747670784989	100	3	97	n/a	NaN	NaN	NaN	NaN	NaN	NaN	NaN	NaN	NaN	NaN	NaN
1232.03696152905	2.0082127841888	10	object_onset	2	stay	0.524785670536077	50	5	45	n/a	NaN	NaN	NaN	NaN	NaN	NaN	NaN	NaN	NaN	NaN	NaN
1236.59471213818	12.6996600966668	10	choice	2	n/a	NaN	NaN	NaN	NaN	d	4	2	1.53792067415716	1.26	48.5598131691118	34.0707805259635	9.13254365480929	1.77635683940025e-15	1249.28321129631	12.6884991581319	-1
1254.41764879809	2.00831294408999	1	object_onset	1	switch	1.08747413762351	1	44	-43	n/a	NaN	NaN	NaN	NaN	NaN	NaN	NaN	NaN	NaN	NaN	NaN
1259.63183142687	3.51996508170851	1	choice	1	n/a	NaN	NaN	NaN	NaN	d	9	11	0.569209978830308	1.08747413762351	2.25042862220399	70.1156602958224	55.5141933777059	25.481413184806	1263.14315140515	3.51131997827906	1
1267.49625312723	2.0081615842646	3	object_onset	2	switch	0.458911756223351	50	11	39	n/a	NaN	NaN	NaN	NaN	NaN	NaN	NaN	NaN	NaN	NaN	NaN
1274.13276774506	2.00830430409405	7	object_onset	2	stay	1.08747413762351	2	90	-88	n/a	NaN	NaN	NaN	NaN	NaN	NaN	NaN	NaN	NaN	NaN	NaN
1280.15427874378	2.00820766424295	4	object_onset	2	stay	1.08747413762351	2	14	-12	n/a	NaN	NaN	NaN	NaN	NaN	NaN	NaN	NaN	NaN	NaN	NaN
1285.48832578247	2.0082796640927	6	object_onset	1	switch	0.458911756223351	44	13	31	n/a	NaN	NaN	NaN	NaN	NaN	NaN	NaN	NaN	NaN	NaN	NaN
