onset	duration	object	trial_type	map	stayswitch	distance	value	counterfactual_value	value_diff	choicetype	object1	object2	chosen_distance	unchosen_distance	chosen_value	unchosen_value	counterfactual_chosen_value	counterfactual_unchosen_value	button	response_time	cr
8.77109421874047	2.01611448265612	4	object_onset	1	n/a	NaN	NaN	NaN	NaN	n/a	NaN	NaN	NaN	NaN	NaN	NaN	NaN	NaN	NaN	NaN	NaN
15.935884147766	2.01615352244698	3	object_onset	2	switch	0.763675323681471	50	11	39	n/a	NaN	NaN	NaN	NaN	NaN	NaN	NaN	NaN	NaN	NaN	NaN
21.8343921549094	3.66573568448075	3	choice	2	n/a	NaN	NaN	NaN	NaN	d	5	12	0.458911756223351	0.814984662432368	22.0921244654867	47.6207587871056	6.8839714578754	59.8748977484675	25.480890811712	3.64649865680258	1
28.3827181629604	2.01603960301145	7	object_onset	1	switch	1.08747413762351	90	2	88	n/a	NaN	NaN	NaN	NaN	NaN	NaN	NaN	NaN	NaN	NaN	NaN
33.9812132101797	2.0162412020436	3	object_onset	2	switch	1.08747413762351	50	11	39	n/a	NaN	NaN	NaN	NaN	NaN	NaN	NaN	NaN	NaN	NaN	NaN
40.3296838575043	2.01614168254309	9	object_onset	2	stay	0.648999229583518	19	71	-52	n/a	NaN	NaN	NaN	NaN	NaN	NaN	NaN	NaN	NaN	NaN	NaN
45.6616912238824	2.01616536240908	6	object_onset	1	switch	0.458911756223351	44	13	31	n/a	NaN	NaN	NaN	NaN	NaN	NaN	NaN	NaN	NaN	NaN	NaN
51.126933150721	2.01613976253429	7	object_onset	2	switch	0.763675323681471	2	90	-88	n/a	NaN	NaN	NaN	NaN	NaN	NaN	NaN	NaN	NaN	NaN	NaN
56.6755263574596	2.01614040252753	8	object_onset	2	stay	0.524785670536077	16	44	-28	n/a	NaN	NaN	NaN	NaN	NaN	NaN	NaN	NaN	NaN	NaN	NaN
61.9409014036646	2.01610520269605	3	object_onset	1	switch	0.9	11	50	-39	n/a	NaN	NaN	NaN	NaN	NaN	NaN	NaN	NaN	NaN	NaN	NaN
69.3556242129998	2.01609560273937	1	object_onset	1	stay	0.458911756223351	1	44	-43	n/a	NaN	NaN	NaN	NaN	NaN	NaN	NaN	NaN	NaN	NaN	NaN
75.6206981406431	8.11459176996141	1	choice	1	n/a	NaN	NaN	NaN	NaN	d	9	11	0.569209978830308	1.08747413762351	2.25042862220399	70.1156602958224	55.5141933777059	25.481413184806	83.7225770116202	8.10187887097709	1
88.7007355164678	2.01610360271297	3	object_onset	1	stay	0.458911756223351	11	50	-39	n/a	NaN	NaN	NaN	NaN	NaN	NaN	NaN	NaN	NaN	NaN	NaN
94.8158476039243	2.0161477625079	3	object_onset	2	switch	0	50	11	39	n/a	NaN	NaN	NaN	NaN	NaN	NaN	NaN	NaN	NaN	NaN	NaN
99.9644926504407	2.01614776247879	7	object_onset	2	stay	1.08747413762351	2	90	-88	n/a	NaN	NaN	NaN	NaN	NaN	NaN	NaN	NaN	NaN	NaN	NaN
107.345994499221	2.01610296271974	10	object_onset	2	stay	1.08747413762351	50	5	45	n/a	NaN	NaN	NaN	NaN	NaN	NaN	NaN	NaN	NaN	NaN	NaN
113.544364427042	2.0160802428145	4	object_onset	1	switch	1.53792067415716	14	2	12	n/a	NaN	NaN	NaN	NaN	NaN	NaN	NaN	NaN	NaN	NaN	NaN
118.559794752975	2.01616152242059	1	object_onset	2	switch	1.08747413762351	44	1	43	n/a	NaN	NaN	NaN	NaN	NaN	NaN	NaN	NaN	NaN	NaN	NaN
125.974572282052	2.0161359225458	8	object_onset	1	switch	1.27914033631967	44	16	28	n/a	NaN	NaN	NaN	NaN	NaN	NaN	NaN	NaN	NaN	NaN	NaN
132.272926689941	2.01615096247406	11	object_onset	1	stay	0.853814968245462	3	100	-97	n/a	NaN	NaN	NaN	NaN	NaN	NaN	NaN	NaN	NaN	NaN	NaN
137.704892936512	2.01614360252279	10	object_onset	2	switch	0.524785670536077	50	5	45	n/a	NaN	NaN	NaN	NaN	NaN	NaN	NaN	NaN	NaN	NaN	NaN
143.570093583548	2.01615288245375	9	object_onset	2	stay	0.763675323681471	19	71	-52	n/a	NaN	NaN	NaN	NaN	NaN	NaN	NaN	NaN	NaN	NaN	NaN
149.818410791631	2.01621432215325	9	object_onset	1	switch	0	71	19	52	n/a	NaN	NaN	NaN	NaN	NaN	NaN	NaN	NaN	NaN	NaN	NaN
155.666899838892	2.01622616211534	1	object_onset	2	switch	1.08747413762351	44	1	43	n/a	NaN	NaN	NaN	NaN	NaN	NaN	NaN	NaN	NaN	NaN	NaN
161.132293125003	2.0161141626304	2	object_onset	2	stay	0.524785670536077	16	5	11	n/a	NaN	NaN	NaN	NaN	NaN	NaN	NaN	NaN	NaN	NaN	NaN
165.981011291151	12.9133738557866	2	choice	2	n/a	NaN	NaN	NaN	NaN	d	7	10	1.26	1.27914033631967	34.0707805259635	14.272887645719	1.77635683940025e-15	85.4771471461812	178.888742934039	12.9077316428884	1
183.443274032295	2.0161061626859	9	object_onset	2	stay	0.9	19	71	-52	n/a	NaN	NaN	NaN	NaN	NaN	NaN	NaN	NaN	NaN	NaN	NaN
189.508362359862	2.01619288226357	4	object_onset	2	stay	0.9	2	14	-12	n/a	NaN	NaN	NaN	NaN	NaN	NaN	NaN	NaN	NaN	NaN	NaN
196.45651332874	2.01627992183785	1	object_onset	2	stay	1.08747413762351	44	1	43	n/a	NaN	NaN	NaN	NaN	NaN	NaN	NaN	NaN	NaN	NaN	NaN
201.771907654853	2.01615960241179	7	object_onset	1	switch	1.53792067415716	90	2	88	n/a	NaN	NaN	NaN	NaN	NaN	NaN	NaN	NaN	NaN	NaN	NaN
206.837289741001	2.01613560254918	10	object_onset	1	stay	1.08747413762351	5	50	-45	n/a	NaN	NaN	NaN	NaN	NaN	NaN	NaN	NaN	NaN	NaN	NaN
212.035884947749	2.01614680248895	12	object_onset	1	stay	0.458911756223351	18	72	-54	n/a	NaN	NaN	NaN	NaN	NaN	NaN	NaN	NaN	NaN	NaN	NaN
217.051236554049	2.01626936192042	8	object_onset	2	switch	0.524785670536077	16	44	-28	n/a	NaN	NaN	NaN	NaN	NaN	NaN	NaN	NaN	NaN	NaN	NaN
223.832945441856	2.01615864245105	1	object_onset	1	switch	1.27914033631967	1	44	-43	n/a	NaN	NaN	NaN	NaN	NaN	NaN	NaN	NaN	NaN	NaN	NaN
229.648034329439	2.01625400196644	2	object_onset	1	stay	0.524785670536077	5	16	-11	n/a	NaN	NaN	NaN	NaN	NaN	NaN	NaN	NaN	NaN	NaN	NaN
235.313287136232	16.8624390602927	2	choice	1	n/a	NaN	NaN	NaN	NaN	d	11	6	0.853814968245462	0.524785670536077	1.88362051778864	38.7004681213976	83.8378807534661	2.96273492775089	252.170674700756	16.8573875645234	-1
255.324963880179	2.01611768262228	9	object_onset	1	stay	0.9	71	19	52	n/a	NaN	NaN	NaN	NaN	NaN	NaN	NaN	NaN	NaN	NaN	NaN
261.70663212816	2.01615864245105	6	object_onset	2	switch	0.458911756223351	13	44	-31	n/a	NaN	NaN	NaN	NaN	NaN	NaN	NaN	NaN	NaN	NaN	NaN
268.804838056763	2.0161557624524	1	object_onset	2	stay	0.9	44	1	43	n/a	NaN	NaN	NaN	NaN	NaN	NaN	NaN	NaN	NaN	NaN	NaN
273.953530143044	2.01605944291805	5	object_onset	1	switch	1.26	71	3	68	n/a	NaN	NaN	NaN	NaN	NaN	NaN	NaN	NaN	NaN	NaN	NaN
279.91870119024	2.01604600297287	7	object_onset	1	stay	0.569209978830308	90	2	88	n/a	NaN	NaN	NaN	NaN	NaN	NaN	NaN	NaN	NaN	NaN	NaN
285.933814397693	2.01613656253903	5	object_onset	1	stay	0.569209978830308	71	3	68	n/a	NaN	NaN	NaN	NaN	NaN	NaN	NaN	NaN	NaN	NaN	NaN
293.248619926628	2.01614488250925	2	object_onset	1	stay	0.853814968245462	5	16	-11	n/a	NaN	NaN	NaN	NaN	NaN	NaN	NaN	NaN	NaN	NaN	NaN
301.013217216561	2.01624088204699	12	object_onset	1	stay	0.814984662432368	18	72	-54	n/a	NaN	NaN	NaN	NaN	NaN	NaN	NaN	NaN	NaN	NaN	NaN
306.845175143157	5.34860792668769	12	choice	1	n/a	NaN	NaN	NaN	NaN	d	3	7	0.458911756223351	0.9	6.8839714578754	72.4864622809436	22.0921244654867	70.4357926371693	312.177433388308	5.33225824515102	1
315.109748593211	2.0161538424436	7	object_onset	2	switch	0.9	2	90	-88	n/a	NaN	NaN	NaN	NaN	NaN	NaN	NaN	NaN	NaN	NaN	NaN
320.791628520179	2.01616632239893	6	object_onset	1	switch	0.763675323681471	44	13	31	n/a	NaN	NaN	NaN	NaN	NaN	NaN	NaN	NaN	NaN	NaN	NaN
327.15653812862	2.01625400196644	1	object_onset	2	switch	0.9	44	1	43	n/a	NaN	NaN	NaN	NaN	NaN	NaN	NaN	NaN	NaN	NaN	NaN
333.538343975961	26.7598997124587	1	choice	2	n/a	NaN	NaN	NaN	NaN	d	7	8	1.27914033631967	1.53792067415716	28.3236873757602	42.5965750214792	42.8345172613902	89.6111962861739	360.284482474497	26.7461384985363	1
365.713409695629	2.01623096209369	11	object_onset	2	stay	0.569209978830308	100	3	97	n/a	NaN	NaN	NaN	NaN	NaN	NaN	NaN	NaN	NaN	NaN	NaN
372.611733063677	2.01615096247406	5	object_onset	1	switch	1.20747670784989	71	3	68	n/a	NaN	NaN	NaN	NaN	NaN	NaN	NaN	NaN	NaN	NaN	NaN
378.843508271151	4.73209760594182	5	choice	1	n/a	NaN	NaN	NaN	NaN	d	9	12	0.524785670536077	0.9	1.4210854715202e-14	52.9909262905921	16.3922524520963	69.7128832525924	383.56073810847	4.71722983731888	1
387.091373641393	2.01615256248624	9	object_onset	1	stay	0.524785670536077	71	19	52	n/a	NaN	NaN	NaN	NaN	NaN	NaN	NaN	NaN	NaN	NaN	NaN
394.872726050904	2.01619448227575	3	object_onset	1	stay	0.648999229583518	11	50	-39	n/a	NaN	NaN	NaN	NaN	NaN	NaN	NaN	NaN	NaN	NaN	NaN
400.504622857814	2.01615832242533	6	object_onset	2	switch	0.458911756223351	13	44	-31	n/a	NaN	NaN	NaN	NaN	NaN	NaN	NaN	NaN	NaN	NaN	NaN
406.803023665474	2.01606904287473	12	object_onset	2	stay	0.648999229583518	72	18	54	n/a	NaN	NaN	NaN	NaN	NaN	NaN	NaN	NaN	NaN	NaN	NaN
414.634286235436	2.01621976212482	1	object_onset	1	switch	0.763675323681471	1	44	-43	n/a	NaN	NaN	NaN	NaN	NaN	NaN	NaN	NaN	NaN	NaN	NaN
420.682830002421	2.01603736300603	4	object_onset	2	switch	1.08747413762351	2	14	-12	n/a	NaN	NaN	NaN	NaN	NaN	NaN	NaN	NaN	NaN	NaN	NaN
426.814603449893	2.01614648249233	5	object_onset	2	stay	0.524785670536077	3	71	-68	n/a	NaN	NaN	NaN	NaN	NaN	NaN	NaN	NaN	NaN	NaN	NaN
433.912790498609	2.01615128247067	6	object_onset	1	switch	0.36	44	13	31	n/a	NaN	NaN	NaN	NaN	NaN	NaN	NaN	NaN	NaN	NaN	NaN
441.427546427789	2.01618616230553	10	object_onset	1	stay	1.08747413762351	5	50	-45	n/a	NaN	NaN	NaN	NaN	NaN	NaN	NaN	NaN	NaN	NaN	NaN
446.226319873676	4.14894072507741	10	choice	1	n/a	NaN	NaN	NaN	NaN	d	4	9	0.763675323681471	1.53792067415716	65.9816111558297	9.13254365480929	31.2285063350093	48.5598131691118	450.363696494256	4.13737662057974	1
453.374492282426	2.01615896244766	9	object_onset	1	stay	0.763675323681471	71	19	52	n/a	NaN	NaN	NaN	NaN	NaN	NaN	NaN	NaN	NaN	NaN	NaN
459.53963388977	2.01610520266695	5	object_onset	1	stay	0.524785670536077	71	3	68	n/a	NaN	NaN	NaN	NaN	NaN	NaN	NaN	NaN	NaN	NaN	NaN
465.071525416686	2.01614616249572	4	object_onset	2	switch	0.524785670536077	2	14	-12	n/a	NaN	NaN	NaN	NaN	NaN	NaN	NaN	NaN	NaN	NaN	NaN
469.13715806164	5.66521344697685	4	choice	2	n/a	NaN	NaN	NaN	NaN	d	5	8	0.524785670536077	1.26	0.93905438200614	14.4890326431482	56.8490675010205	29.5679244665883	474.786485504883	5.64932744324324	1
479.234590233973	2.01619768224191	5	object_onset	1	switch	0.524785670536077	71	3	68	n/a	NaN	NaN	NaN	NaN	NaN	NaN	NaN	NaN	NaN	NaN	NaN
486.499431202741	2.0160744828172	5	object_onset	2	switch	0	3	71	-68	n/a	NaN	NaN	NaN	NaN	NaN	NaN	NaN	NaN	NaN	NaN	NaN
493.064421130781	2.0161279225722	1	object_onset	1	switch	1.26	1	44	-43	n/a	NaN	NaN	NaN	NaN	NaN	NaN	NaN	NaN	NaN	NaN	NaN
500.679185859917	2.01608728276915	10	object_onset	1	stay	1.08747413762351	5	50	-45	n/a	NaN	NaN	NaN	NaN	NaN	NaN	NaN	NaN	NaN	NaN	NaN
506.760948667448	2.01599608320976	3	object_onset	1	stay	0.9	11	50	-39	n/a	NaN	NaN	NaN	NaN	NaN	NaN	NaN	NaN	NaN	NaN	NaN
512.942685075104	2.01613880254445	7	object_onset	2	switch	1.08747413762351	2	90	-88	n/a	NaN	NaN	NaN	NaN	NaN	NaN	NaN	NaN	NaN	NaN	NaN
520.557431884314	2.01615160249639	6	object_onset	2	stay	0.763675323681471	13	44	-31	n/a	NaN	NaN	NaN	NaN	NaN	NaN	NaN	NaN	NaN	NaN	NaN
525.606095010735	2.01615160246729	8	object_onset	1	switch	0.814984662432368	44	16	28	n/a	NaN	NaN	NaN	NaN	NaN	NaN	NaN	NaN	NaN	NaN	NaN
532.137698219041	2.01626968191704	8	object_onset	1	stay	0	44	16	28	n/a	NaN	NaN	NaN	NaN	NaN	NaN	NaN	NaN	NaN	NaN	NaN
537.469760305161	2.01602648306289	11	object_onset	2	switch	0.853814968245462	100	3	97	n/a	NaN	NaN	NaN	NaN	NaN	NaN	NaN	NaN	NaN	NaN	NaN
543.768188952701	2.01603544302634	9	object_onset	1	switch	0.814984662432368	71	19	52	n/a	NaN	NaN	NaN	NaN	NaN	NaN	NaN	NaN	NaN	NaN	NaN
548.750203759031	5.11536584622809	9	choice	1	n/a	NaN	NaN	NaN	NaN	d	6	2	0.458911756223351	0.9	27.2811430344321	65.9816111558297	5.80500911870512	2.84227419095423	553.859371875005	5.10916811597417	1
556.864858248679	2.01610872268793	8	object_onset	2	switch	0.36	16	44	-28	n/a	NaN	NaN	NaN	NaN	NaN	NaN	NaN	NaN	NaN	NaN	NaN
562.21344441548	2.01620056221145	11	object_onset	1	switch	0.853814968245462	3	100	-97	n/a	NaN	NaN	NaN	NaN	NaN	NaN	NaN	NaN	NaN	NaN	NaN
568.945076743636	2.01615608244902	9	object_onset	2	switch	0.814984662432368	19	71	-52	n/a	NaN	NaN	NaN	NaN	NaN	NaN	NaN	NaN	NaN	NaN	NaN
574.860220190953	2.0162034422101	2	object_onset	1	switch	0.9	5	16	-11	n/a	NaN	NaN	NaN	NaN	NaN	NaN	NaN	NaN	NaN	NaN	NaN
580.492172677565	2.01611288267304	10	object_onset	2	switch	1.26	50	5	45	n/a	NaN	NaN	NaN	NaN	NaN	NaN	NaN	NaN	NaN	NaN	NaN
586.540589725162	2.01614680248895	2	object_onset	1	switch	1.26	5	16	-11	n/a	NaN	NaN	NaN	NaN	NaN	NaN	NaN	NaN	NaN	NaN	NaN
593.455500533601	2.01619096228387	3	object_onset	2	switch	0.36	50	11	39	n/a	NaN	NaN	NaN	NaN	NaN	NaN	NaN	NaN	NaN	NaN	NaN
598.870669420779	2.01627224188996	3	object_onset	2	stay	0	50	11	39	n/a	NaN	NaN	NaN	NaN	NaN	NaN	NaN	NaN	NaN	NaN	NaN
606.635483349673	2.01618040233734	12	object_onset	2	stay	0.458911756223351	72	18	54	n/a	NaN	NaN	NaN	NaN	NaN	NaN	NaN	NaN	NaN	NaN	NaN
614.000450237829	2.01596856335527	9	object_onset	2	stay	0.458911756223351	19	71	-52	n/a	NaN	NaN	NaN	NaN	NaN	NaN	NaN	NaN	NaN	NaN	NaN
620.848408407648	2.01630232174648	12	object_onset	2	stay	0.458911756223351	72	18	54	n/a	NaN	NaN	NaN	NaN	NaN	NaN	NaN	NaN	NaN	NaN	NaN
625.547243773239	26.8432401124446	12	choice	2	n/a	NaN	NaN	NaN	NaN	d	2	5	0.814984662432368	0.9	56.1629049914503	69.7128832525924	12.9906848652376	52.9909262905921	652.372351492726	26.8251077194873	1
656.322829170414	2.01614712248556	2	object_onset	2	stay	0.814984662432368	16	5	11	n/a	NaN	NaN	NaN	NaN	NaN	NaN	NaN	NaN	NaN	NaN	NaN
661.538159656833	2.0161916022771	10	object_onset	2	stay	1.26	50	5	45	n/a	NaN	NaN	NaN	NaN	NaN	NaN	NaN	NaN	NaN	NaN	NaN
667.120106623479	2.01611640263582	7	object_onset	1	switch	1.08747413762351	90	2	88	n/a	NaN	NaN	NaN	NaN	NaN	NaN	NaN	NaN	NaN	NaN	NaN
672.501985110459	2.0161935222859	8	object_onset	2	switch	0.524785670536077	16	44	-28	n/a	NaN	NaN	NaN	NaN	NaN	NaN	NaN	NaN	NaN	NaN	NaN
678.883735598065	2.01615640244563	10	object_onset	2	stay	0.569209978830308	50	5	45	n/a	NaN	NaN	NaN	NaN	NaN	NaN	NaN	NaN	NaN	NaN	NaN
683.399256643577	4.81545080582146	10	choice	2	n/a	NaN	NaN	NaN	NaN	d	4	1	1.08747413762351	1.53792067415716	5.74709315020331	48.5598131691118	4.13404913999263	9.13254365480929	688.197223053314	4.79796640973655	1
691.730483533669	2.01613944253768	12	object_onset	1	switch	0.458911756223351	18	72	-54	n/a	NaN	NaN	NaN	NaN	NaN	NaN	NaN	NaN	NaN	NaN	NaN
698.611965702556	2.01627928187372	10	object_onset	1	stay	0.458911756223351	5	50	-45	n/a	NaN	NaN	NaN	NaN	NaN	NaN	NaN	NaN	NaN	NaN	NaN
705.443687150313	2.01614008250181	2	object_onset	1	stay	1.26	5	16	-11	n/a	NaN	NaN	NaN	NaN	NaN	NaN	NaN	NaN	NaN	NaN	NaN
710.6923518767	2.0161439225194	7	object_onset	2	switch	1.27914033631967	2	90	-88	n/a	NaN	NaN	NaN	NaN	NaN	NaN	NaN	NaN	NaN	NaN	NaN
715.74102716308	2.01619512223988	4	object_onset	2	stay	1.08747413762351	2	14	-12	n/a	NaN	NaN	NaN	NaN	NaN	NaN	NaN	NaN	NaN	NaN	NaN
722.922438772279	2.01624344204902	6	object_onset	1	switch	0.458911756223351	44	13	31	n/a	NaN	NaN	NaN	NaN	NaN	NaN	NaN	NaN	NaN	NaN	NaN
727.388053817354	7.84801096952287	6	choice	1	n/a	NaN	NaN	NaN	NaN	d	10	1	0.9	1.08747413762351	42.8345172613902	38.7004681213976	31.2864223035111	37.0335154537144	735.22802418549	7.83997036813525	1
741.051283593843	2.01615352244698	6	object_onset	1	stay	0	44	13	31	n/a	NaN	NaN	NaN	NaN	NaN	NaN	NaN	NaN	NaN	NaN	NaN
746.74984024078	2.01615320245037	4	object_onset	1	stay	0.458911756223351	14	2	12	n/a	NaN	NaN	NaN	NaN	NaN	NaN	NaN	NaN	NaN	NaN	NaN
753.214749049192	2.01625912197051	11	object_onset	2	switch	1.27914033631967	100	3	97	n/a	NaN	NaN	NaN	NaN	NaN	NaN	NaN	NaN	NaN	NaN	NaN
758.063500175194	2.01622392213903	2	object_onset	2	stay	0.853814968245462	16	5	11	n/a	NaN	NaN	NaN	NaN	NaN	NaN	NaN	NaN	NaN	NaN	NaN
765.378385063756	2.01607672282262	6	object_onset	2	stay	0.524785670536077	13	44	-31	n/a	NaN	NaN	NaN	NaN	NaN	NaN	NaN	NaN	NaN	NaN	NaN
770.31046218978	8.1979142500204	6	choice	2	n/a	NaN	NaN	NaN	NaN	d	8	5	0.36	0.814984662432368	10.5872433333912	2.96273492775089	27.2811430344322	7.105427357601e-15	778.494520186301	8.18405799652101	1
781.674289883405	2.0161359225458	10	object_onset	2	stay	1.08747413762351	50	5	45	n/a	NaN	NaN	NaN	NaN	NaN	NaN	NaN	NaN	NaN	NaN	NaN
788.072593891557	2.01619896222837	8	object_onset	1	switch	0.569209978830308	44	16	28	n/a	NaN	NaN	NaN	NaN	NaN	NaN	NaN	NaN	NaN	NaN	NaN
793.671183658327	2.01618904227507	6	object_onset	2	switch	0.814984662432368	13	44	-31	n/a	NaN	NaN	NaN	NaN	NaN	NaN	NaN	NaN	NaN	NaN	NaN
798.569920144393	2.01615800242871	7	object_onset	2	stay	0.763675323681471	2	90	-88	n/a	NaN	NaN	NaN	NaN	NaN	NaN	NaN	NaN	NaN	NaN	NaN
803.068700150237	6.53179296740564	7	choice	2	n/a	NaN	NaN	NaN	NaN	d	12	4	0.9	1.08747413762351	70.4357926371693	0.216144997429269	72.4864622809436	76.3446034913719	809.583604558691	6.51490440845373	1
813.966045282985	2.01612280259724	7	object_onset	1	switch	0	90	2	88	n/a	NaN	NaN	NaN	NaN	NaN	NaN	NaN	NaN	NaN	NaN	NaN
819.397917769995	4.59891296521528	7	choice	1	n/a	NaN	NaN	NaN	NaN	d	12	9	0.458911756223351	0.9	19.4955359903515	72.4864622809436	17.1151618366732	70.4357926371693	823.980078495631	4.58216072563664	1
827.229303219356	2.01614680248895	11	object_onset	1	stay	1.26	3	100	-97	n/a	NaN	NaN	NaN	NaN	NaN	NaN	NaN	NaN	NaN	NaN	NaN
833.594388186932	7.28143192912103	11	choice	1	n/a	NaN	NaN	NaN	NaN	d	1	3	0.524785670536077	0.569209978830308	7.99033392515088	2.25042862220399	49.7671002275025	55.5141933777059	840.866288001824	7.27189981489209	1
845.408038041409	2.01612344261957	2	object_onset	2	switch	0.853814968245462	16	5	11	n/a	NaN	NaN	NaN	NaN	NaN	NaN	NaN	NaN	NaN	NaN	NaN
851.07318780871	2.01622840209166	8	object_onset	2	stay	1.20747670784989	16	44	-28	n/a	NaN	NaN	NaN	NaN	NaN	NaN	NaN	NaN	NaN	NaN	NaN
856.421788695414	2.01627352187643	12	object_onset	1	switch	0.524785670536077	18	72	-54	n/a	NaN	NaN	NaN	NaN	NaN	NaN	NaN	NaN	NaN	NaN	NaN
861.370603981108	2.01619512226898	12	object_onset	1	stay	0	18	72	-54	n/a	NaN	NaN	NaN	NaN	NaN	NaN	NaN	NaN	NaN	NaN	NaN
867.319095748331	2.01607160287676	3	object_onset	1	stay	0.458911756223351	11	50	-39	n/a	NaN	NaN	NaN	NaN	NaN	NaN	NaN	NaN	NaN	NaN	NaN
871.71796167377	4.94875096599571	3	choice	1	n/a	NaN	NaN	NaN	NaN	d	10	11	0.524785670536077	0.9	7.99033392515088	6.10671340736224	49.7671002275025	2.1316282072803e-14	876.651112394669	4.93315072089899	1
880.649064404482	2.01611032267101	9	object_onset	1	stay	0.648999229583518	71	19	52	n/a	NaN	NaN	NaN	NaN	NaN	NaN	NaN	NaN	NaN	NaN	NaN
887.7472280933	2.01606488288962	10	object_onset	1	stay	0.763675323681471	5	50	-45	n/a	NaN	NaN	NaN	NaN	NaN	NaN	NaN	NaN	NaN	NaN	NaN
892.712619939412	2.01615992243751	4	object_onset	1	stay	1.53792067415716	14	2	12	n/a	NaN	NaN	NaN	NaN	NaN	NaN	NaN	NaN	NaN	NaN	NaN
896.994753945182	11.8470880939858	4	choice	1	n/a	NaN	NaN	NaN	NaN	d	8	7	1.08747413762351	1.26	76.3446034913719	29.5679244665883	0.216144997429269	14.4890326431482	908.834507994354	11.8397540491715	1
913.823918605194	2.01614168251399	2	object_onset	2	switch	0.569209978830308	16	5	11	n/a	NaN	NaN	NaN	NaN	NaN	NaN	NaN	NaN	NaN	NaN	NaN
920.555521493487	2.0162114421837	5	object_onset	2	stay	0.853814968245462	3	71	-68	n/a	NaN	NaN	NaN	NaN	NaN	NaN	NaN	NaN	NaN	NaN	NaN
925.120922939561	8.48132792962133	5	choice	2	n/a	NaN	NaN	NaN	NaN	d	1	3	0.814984662432368	1.26	47.6207587871056	41.8736656369023	59.8748977484675	70.1156602958224	933.583809037722	8.46288609816111	1
936.468153592868	2.01619064228726	12	object_onset	2	stay	0.9	72	18	54	n/a	NaN	NaN	NaN	NaN	NaN	NaN	NaN	NaN	NaN	NaN	NaN
942.399973120133	2.01615032248083	11	object_onset	1	switch	0.36	3	100	-97	n/a	NaN	NaN	NaN	NaN	NaN	NaN	NaN	NaN	NaN	NaN	NaN
948.031914406805	2.01610584268929	11	object_onset	1	stay	0	3	100	-97	n/a	NaN	NaN	NaN	NaN	NaN	NaN	NaN	NaN	NaN	NaN	NaN
953.630339054362	2.01625240201247	4	object_onset	2	switch	1.27914033631967	2	14	-12	n/a	NaN	NaN	NaN	NaN	NaN	NaN	NaN	NaN	NaN	NaN	NaN
959.062409620441	2.01616984239081	8	object_onset	2	stay	1.26	16	44	-28	n/a	NaN	NaN	NaN	NaN	NaN	NaN	NaN	NaN	NaN	NaN	NaN
965.927314268891	10.6306203330169	8	choice	2	n/a	NaN	NaN	NaN	NaN	d	3	4	0.9	1.26	34.0707805259635	14.4890326431482	32.5937547140353	29.5679244665883	976.549763441144	10.6224491722533	1
981.656651248079	2.01605944291805	5	object_onset	2	stay	0.853814968245462	3	71	-68	n/a	NaN	NaN	NaN	NaN	NaN	NaN	NaN	NaN	NaN	NaN	NaN
988.088375255786	2.01611480265274	5	object_onset	2	stay	0	3	71	-68	n/a	NaN	NaN	NaN	NaN	NaN	NaN	NaN	NaN	NaN	NaN	NaN
993.237070862058	2.01599704322871	11	object_onset	2	stay	1.20747670784989	100	3	97	n/a	NaN	NaN	NaN	NaN	NaN	NaN	NaN	NaN	NaN	NaN	NaN
998.085782948241	2.01620696220198	3	object_onset	2	stay	0.524785670536077	50	11	39	n/a	NaN	NaN	NaN	NaN	NaN	NaN	NaN	NaN	NaN	NaN	NaN
1003.93430687534	2.0161538424436	5	object_onset	2	stay	0.814984662432368	3	71	-68	n/a	NaN	NaN	NaN	NaN	NaN	NaN	NaN	NaN	NaN	NaN	NaN
1010.16593616351	2.01626072195359	11	object_onset	1	switch	1.20747670784989	3	100	-97	n/a	NaN	NaN	NaN	NaN	NaN	NaN	NaN	NaN	NaN	NaN	NaN
1017.33090433167	2.01614968245849	12	object_onset	1	stay	0.36	18	72	-54	n/a	NaN	NaN	NaN	NaN	NaN	NaN	NaN	NaN	NaN	NaN	NaN
1022.79616641841	2.01616216241382	12	object_onset	2	switch	0	72	18	54	n/a	NaN	NaN	NaN	NaN	NaN	NaN	NaN	NaN	NaN	NaN	NaN
1029.71106826686	2.01615928244428	6	object_onset	2	stay	0.648999229583518	13	44	-31	n/a	NaN	NaN	NaN	NaN	NaN	NaN	NaN	NaN	NaN	NaN	NaN
1034.60982747283	2.01607768281247	6	object_onset	1	switch	0	44	13	31	n/a	NaN	NaN	NaN	NaN	NaN	NaN	NaN	NaN	NaN	NaN	NaN
1040.70830284015	2.01618712229538	8	object_onset	1	stay	0.814984662432368	44	16	28	n/a	NaN	NaN	NaN	NaN	NaN	NaN	NaN	NaN	NaN	NaN	NaN
1047.14001180793	2.01611448265612	1	object_onset	1	stay	1.27914033631967	1	44	-43	n/a	NaN	NaN	NaN	NaN	NaN	NaN	NaN	NaN	NaN	NaN	NaN
1054.57141133724	2.01616024240502	1	object_onset	1	stay	0	1	44	-43	n/a	NaN	NaN	NaN	NaN	NaN	NaN	NaN	NaN	NaN	NaN	NaN
1060.12000486397	2.01614200251061	1	object_onset	2	switch	0	44	1	43	n/a	NaN	NaN	NaN	NaN	NaN	NaN	NaN	NaN	NaN	NaN	NaN
1065.20203903021	2.01618136232719	2	object_onset	1	switch	0.524785670536077	5	16	-11	n/a	NaN	NaN	NaN	NaN	NaN	NaN	NaN	NaN	NaN	NaN	NaN
1070.70063535694	2.01615800245781	4	object_onset	1	stay	0.569209978830308	14	2	12	n/a	NaN	NaN	NaN	NaN	NaN	NaN	NaN	NaN	NaN	NaN	NaN
1076.68244024427	2.01614872249775	9	object_onset	2	switch	0.9	19	71	-52	n/a	NaN	NaN	NaN	NaN	NaN	NaN	NaN	NaN	NaN	NaN	NaN
1081.59774689082	9.76430513133528	9	choice	2	n/a	NaN	NaN	NaN	NaN	d	11	6	0.458911756223351	0.814984662432368	5.80500911870512	80.9956065625119	27.2811430344321	67.8652316736184	1091.34410970827	9.74636281744461	1
1094.97783722638	2.01610456270282	5	object_onset	1	switch	0.524785670536077	71	3	68	n/a	NaN	NaN	NaN	NaN	NaN	NaN	NaN	NaN	NaN	NaN	NaN
1100.32634819351	2.0162728819123	10	object_onset	1	stay	1.27914033631967	5	50	-45	n/a	NaN	NaN	NaN	NaN	NaN	NaN	NaN	NaN	NaN	NaN	NaN
1107.47459996192	2.01608248279081	12	object_onset	2	switch	0.458911756223351	72	18	54	n/a	NaN	NaN	NaN	NaN	NaN	NaN	NaN	NaN	NaN	NaN	NaN
1112.70653292863	2.01627032191027	7	object_onset	1	switch	0.9	90	2	88	n/a	NaN	NaN	NaN	NaN	NaN	NaN	NaN	NaN	NaN	NaN	NaN
1118.82176213554	2.01615032248083	11	object_onset	2	switch	1.26	100	3	97	n/a	NaN	NaN	NaN	NaN	NaN	NaN	NaN	NaN	NaN	NaN	NaN
1125.60331742407	11.1638667334337	11	choice	2	n/a	NaN	NaN	NaN	NaN	d	6	2	0.853814968245462	0.9	83.8378807534661	86.800615681217	1.88362051778864	40.5840886391862	1136.75550197359	11.1521845495154	1
1139.76642128118	2.01611736262566	11	object_onset	2	stay	0	100	3	97	n/a	NaN	NaN	NaN	NaN	NaN	NaN	NaN	NaN	NaN	NaN	NaN
1146.29804496939	2.01616248241044	8	object_onset	1	switch	0.853814968245462	44	16	28	n/a	NaN	NaN	NaN	NaN	NaN	NaN	NaN	NaN	NaN	NaN	NaN
1150.69694385468	13.9131095370685	8	choice	1	n/a	NaN	NaN	NaN	NaN	d	2	10	1.20747670784989	0.569209978830308	38.7004681213976	38.7004681213976	0	34.0707805259635	1164.59459490594	13.8976510512584	-1
1170.14190939884	2.01625176199013	2	object_onset	2	switch	1.20747670784989	16	5	11	n/a	NaN	NaN	NaN	NaN	NaN	NaN	NaN	NaN	NaN	NaN	NaN
1177.39014820728	2.01618008234072	4	object_onset	2	stay	0.569209978830308	2	14	-12	n/a	NaN	NaN	NaN	NaN	NaN	NaN	NaN	NaN	NaN	NaN	NaN
1183.33861917464	2.01613528252346	4	object_onset	1	switch	0	14	2	12	n/a	NaN	NaN	NaN	NaN	NaN	NaN	NaN	NaN	NaN	NaN	NaN
1189.80368478232	2.01610264269402	3	object_onset	1	stay	0.763675323681471	11	50	-39	n/a	NaN	NaN	NaN	NaN	NaN	NaN	NaN	NaN	NaN	NaN	NaN
