onset	duration	object	trial_type	map	stayswitch	distance	value	counterfactual_value	value_diff	choicetype	object1	object2	chosen_distance	unchosen_distance	chosen_value	unchosen_value	counterfactual_chosen_value	counterfactual_unchosen_value	button	response_time	cr
8.79791228205431	2.01613483866095	1	object_onset	1	n/a	NaN	NaN	NaN	NaN	n/a	NaN	NaN	NaN	NaN	NaN	NaN	NaN	NaN	NaN	NaN	NaN
12.8468534312851	7.3814035600808	1	choice	1	n/a	NaN	NaN	NaN	NaN	d	3	5	0.458911756223351	1.26	10.2407625473549	70.1156602958224	5.74709315020333	41.8736656369023	20.2023728344066	7.35551940312143	1
23.41071071435	2.01617163815536	7	object_onset	1	stay	1.53792067415716	90	2	88	n/a	NaN	NaN	NaN	NaN	NaN	NaN	NaN	NaN	NaN	NaN	NaN
28.3927762181556	2.01613515862846	10	object_onset	2	switch	1.08747413762351	50	5	45	n/a	NaN	NaN	NaN	NaN	NaN	NaN	NaN	NaN	NaN	NaN	NaN
33.6247086836374	2.01613003871171	2	object_onset	2	stay	1.26	16	5	11	n/a	NaN	NaN	NaN	NaN	NaN	NaN	NaN	NaN	NaN	NaN	NaN
38.9566447010729	9.23082527931547	2	choice	2	n/a	NaN	NaN	NaN	NaN	d	8	12	1.20747670784989	0.814984662432368	0	56.1629049914503	38.7004681213976	12.9906848652376	48.1602232804289	9.20357857935596	-1
52.353163912514	2.01599692038144	11	object_onset	1	switch	0.853814968245462	3	100	-97	n/a	NaN	NaN	NaN	NaN	NaN	NaN	NaN	NaN	NaN	NaN	NaN
56.6020433664962	5.81513670709683	11	choice	1	n/a	NaN	NaN	NaN	NaN	d	2	10	0.524785670536077	0.853814968245462	1.88362051778864	1.88362051778864	49.7671002275026	83.8378807534661	62.3999582085235	5.79791484202724	1
66.766043239797	2.01611115894048	10	object_onset	1	stay	0.524785670536077	5	50	-45	n/a	NaN	NaN	NaN	NaN	NaN	NaN	NaN	NaN	NaN	NaN	NaN
72.4978414669458	8.99763554951642	10	choice	1	n/a	NaN	NaN	NaN	NaN	d	7	4	1.08747413762351	1.53792067415716	85.4771471461812	9.13254365480929	48.3436681716825	48.5598131691118	81.4888783788192	8.99103691187338	1
87.1273382508371	2.01614763846737	7	object_onset	2	switch	1.08747413762351	2	90	-88	n/a	NaN	NaN	NaN	NaN	NaN	NaN	NaN	NaN	NaN	NaN	NaN
94.1088812011876	2.01599500037264	7	object_onset	2	stay	0	2	90	-88	n/a	NaN	NaN	NaN	NaN	NaN	NaN	NaN	NaN	NaN	NaN	NaN
101.690200986312	2.01612939868937	8	object_onset	1	switch	0.524785670536077	44	16	28	n/a	NaN	NaN	NaN	NaN	NaN	NaN	NaN	NaN	NaN	NaN	NaN
106.005701368849	12.1635365190741	8	choice	1	n/a	NaN	NaN	NaN	NaN	d	1	11	1.27914033631967	0.853814968245462	42.8345172613902	40.5840886391862	28.3236873757602	83.8378807534661	118.159402810677	12.1537014418282	-1
122.434753934271	2.0161460385134	5	object_onset	1	stay	0.853814968245462	71	3	68	n/a	NaN	NaN	NaN	NaN	NaN	NaN	NaN	NaN	NaN	NaN	NaN
127.333471358288	2.01613835859462	7	object_onset	2	switch	0.569209978830308	2	90	-88	n/a	NaN	NaN	NaN	NaN	NaN	NaN	NaN	NaN	NaN	NaN	NaN
133.765125171252	2.01618827797938	5	object_onset	2	stay	0.569209978830308	3	71	-68	n/a	NaN	NaN	NaN	NaN	NaN	NaN	NaN	NaN	NaN	NaN	NaN
139.630249414506	2.016138038598	4	object_onset	1	switch	0.524785670536077	14	2	12	n/a	NaN	NaN	NaN	NaN	NaN	NaN	NaN	NaN	NaN	NaN	NaN
145.795292154769	2.01614571848768	1	object_onset	1	stay	1.08747413762351	1	44	-43	n/a	NaN	NaN	NaN	NaN	NaN	NaN	NaN	NaN	NaN	NaN	NaN
152.226966127462	2.01614475852693	8	object_onset	1	stay	1.27914033631967	44	16	28	n/a	NaN	NaN	NaN	NaN	NaN	NaN	NaN	NaN	NaN	NaN	NaN
159.008505813865	2.01612779870629	2	object_onset	1	stay	1.20747670784989	5	16	-11	n/a	NaN	NaN	NaN	NaN	NaN	NaN	NaN	NaN	NaN	NaN	NaN
166.656395328202	2.0162717969215	12	object_onset	2	switch	0.814984662432368	72	18	54	n/a	NaN	NaN	NaN	NaN	NaN	NaN	NaN	NaN	NaN	NaN	NaN
172.371693281282	2.01611339888768	8	object_onset	1	switch	0.524785670536077	44	16	28	n/a	NaN	NaN	NaN	NaN	NaN	NaN	NaN	NaN	NaN	NaN	NaN
180.202983066789	2.01614123856416	3	object_onset	1	stay	0.9	11	50	-39	n/a	NaN	NaN	NaN	NaN	NaN	NaN	NaN	NaN	NaN	NaN	NaN
186.334707502858	8.54774900409393	3	choice	1	n/a	NaN	NaN	NaN	NaN	d	6	11	0.458911756223351	0.524785670536077	32.5937547140354	7.99033392515088	37.0335154537144	49.7671002275025	194.876509381167	8.54180187830934	1
198.96469484063	2.01613643861492	1	object_onset	2	switch	0.458911756223351	44	1	43	n/a	NaN	NaN	NaN	NaN	NaN	NaN	NaN	NaN	NaN	NaN	NaN
206.546072865021	2.01613739860477	1	object_onset	1	switch	0	1	44	-43	n/a	NaN	NaN	NaN	NaN	NaN	NaN	NaN	NaN	NaN	NaN	NaN
213.360961895203	2.01612523876247	5	object_onset	2	switch	1.26	3	71	-68	n/a	NaN	NaN	NaN	NaN	NaN	NaN	NaN	NaN	NaN	NaN	NaN
218.509573800518	2.01612907872186	2	object_onset	1	switch	0.853814968245462	5	16	-11	n/a	NaN	NaN	NaN	NaN	NaN	NaN	NaN	NaN	NaN	NaN	NaN
225.424432143103	2.01616203828598	4	object_onset	2	switch	0.569209978830308	2	14	-12	n/a	NaN	NaN	NaN	NaN	NaN	NaN	NaN	NaN	NaN	NaN	NaN
230.43978683147	2.0161277987354	3	object_onset	1	switch	0.763675323681471	11	50	-39	n/a	NaN	NaN	NaN	NaN	NaN	NaN	NaN	NaN	NaN	NaN	NaN
236.204931522458	2.016174518154	11	object_onset	1	stay	0.524785670536077	3	100	-97	n/a	NaN	NaN	NaN	NaN	NaN	NaN	NaN	NaN	NaN	NaN	NaN
242.503285879007	2.01612235879293	7	object_onset	1	stay	1.26	90	2	88	n/a	NaN	NaN	NaN	NaN	NaN	NaN	NaN	NaN	NaN	NaN	NaN
249.084888540616	2.01612363875029	7	object_onset	1	stay	0	90	2	88	n/a	NaN	NaN	NaN	NaN	NaN	NaN	NaN	NaN	NaN	NaN	NaN
254.999944000709	2.01619659786229	6	object_onset	2	switch	0.763675323681471	13	44	-31	n/a	NaN	NaN	NaN	NaN	NaN	NaN	NaN	NaN	NaN	NaN	NaN
260.231967665051	2.01613867859123	1	object_onset	1	switch	0.9	1	44	-43	n/a	NaN	NaN	NaN	NaN	NaN	NaN	NaN	NaN	NaN	NaN	NaN
267.413419160526	2.01617131818784	8	object_onset	2	switch	1.27914033631967	16	44	-28	n/a	NaN	NaN	NaN	NaN	NaN	NaN	NaN	NaN	NaN	NaN	NaN
274.678216495871	2.01612907872186	10	object_onset	1	switch	0.569209978830308	5	50	-45	n/a	NaN	NaN	NaN	NaN	NaN	NaN	NaN	NaN	NaN	NaN	NaN
279.993465361564	2.01601004018448	8	object_onset	1	stay	0.569209978830308	44	16	28	n/a	NaN	NaN	NaN	NaN	NaN	NaN	NaN	NaN	NaN	NaN	NaN
287.458089003048	2.01624427727074	5	object_onset	2	switch	0.853814968245462	3	71	-68	n/a	NaN	NaN	NaN	NaN	NaN	NaN	NaN	NaN	NaN	NaN	NaN
294.006445679581	2.01616939820815	7	object_onset	2	stay	0.569209978830308	2	90	-88	n/a	NaN	NaN	NaN	NaN	NaN	NaN	NaN	NaN	NaN	NaN	NaN
299.505050336971	2.01612395877601	10	object_onset	1	switch	1.08747413762351	5	50	-45	n/a	NaN	NaN	NaN	NaN	NaN	NaN	NaN	NaN	NaN	NaN	NaN
305.086875075824	2.01617291814182	11	object_onset	2	switch	0.524785670536077	100	3	97	n/a	NaN	NaN	NaN	NaN	NaN	NaN	NaN	NaN	NaN	NaN	NaN
312.884830237337	2.01616619824199	3	object_onset	1	switch	0.524785670536077	11	50	-39	n/a	NaN	NaN	NaN	NaN	NaN	NaN	NaN	NaN	NaN	NaN	NaN
319.033246305102	2.01614059857093	7	object_onset	1	stay	1.08747413762351	90	2	88	n/a	NaN	NaN	NaN	NaN	NaN	NaN	NaN	NaN	NaN	NaN	NaN
324.86505704411	6.83151602267753	7	choice	1	n/a	NaN	NaN	NaN	NaN	d	6	10	0.763675323681471	1.08747413762351	46.7766790247836	85.4771471461812	11.3101527179681	48.3436681716825	331.685726162163	6.82066911805305	1
335.312288262649	2.01612651874893	9	object_onset	1	stay	0.458911756223351	71	19	52	n/a	NaN	NaN	NaN	NaN	NaN	NaN	NaN	NaN	NaN	NaN	NaN
341.110815897031	2.01611307892017	4	object_onset	2	switch	0.9	2	14	-12	n/a	NaN	NaN	NaN	NaN	NaN	NaN	NaN	NaN	NaN	NaN	NaN
347.559113662282	2.01613355864538	11	object_onset	1	switch	1.27914033631967	3	100	-97	n/a	NaN	NaN	NaN	NaN	NaN	NaN	NaN	NaN	NaN	NaN	NaN
354.473961764976	2.01612875869614	11	object_onset	2	switch	0	100	3	97	n/a	NaN	NaN	NaN	NaN	NaN	NaN	NaN	NaN	NaN	NaN	NaN
359.922503047186	2.01616171828937	2	object_onset	1	switch	0.853814968245462	5	16	-11	n/a	NaN	NaN	NaN	NaN	NaN	NaN	NaN	NaN	NaN	NaN	NaN
367.203959054605	2.01610347902169	3	object_onset	1	stay	0.36	11	50	-39	n/a	NaN	NaN	NaN	NaN	NaN	NaN	NaN	NaN	NaN	NaN	NaN
372.369233471982	2.01613099867245	10	object_onset	2	switch	0.9	50	5	45	n/a	NaN	NaN	NaN	NaN	NaN	NaN	NaN	NaN	NaN	NaN	NaN
379.584047111101	2.0159962803591	10	object_onset	2	stay	0	50	5	45	n/a	NaN	NaN	NaN	NaN	NaN	NaN	NaN	NaN	NaN	NaN	NaN
385.182467802806	2.01625259718276	10	object_onset	1	switch	0	5	50	-45	n/a	NaN	NaN	NaN	NaN	NaN	NaN	NaN	NaN	NaN	NaN	NaN
390.047852202813	2.01623659738107	11	object_onset	1	stay	0.524785670536077	3	100	-97	n/a	NaN	NaN	NaN	NaN	NaN	NaN	NaN	NaN	NaN	NaN	NaN
395.479880731087	2.01614347854047	1	object_onset	2	switch	0.569209978830308	44	1	43	n/a	NaN	NaN	NaN	NaN	NaN	NaN	NaN	NaN	NaN	NaN	NaN
400.378472396667	6.76501925257617	1	choice	2	n/a	NaN	NaN	NaN	NaN	d	10	9	1.08747413762351	1.08747413762351	25.481413184806	5.74709315020331	70.1156602958224	4.13404913999263	407.136670934357	6.75819853768917	1
411.525930396398	2.01587884183391	6	object_onset	1	switch	0.9	44	13	31	n/a	NaN	NaN	NaN	NaN	NaN	NaN	NaN	NaN	NaN	NaN	NaN
417.307453763002	12.1301788553537	6	choice	1	n/a	NaN	NaN	NaN	NaN	d	11	8	0.814984662432368	0.9	7.105427357601e-15	40.5840886391862	2.96273492775089	86.800615681217	429.42862281081	12.1211690478085	1
432.286894979567	2.01611147893709	12	object_onset	2	switch	0.648999229583518	72	18	54	n/a	NaN	NaN	NaN	NaN	NaN	NaN	NaN	NaN	NaN	NaN	NaN
437.768765445828	2.01616491825553	12	object_onset	2	stay	0	72	18	54	n/a	NaN	NaN	NaN	NaN	NaN	NaN	NaN	NaN	NaN	NaN	NaN
445.583429198829	2.01611531886738	6	object_onset	1	switch	0.648999229583518	44	13	31	n/a	NaN	NaN	NaN	NaN	NaN	NaN	NaN	NaN	NaN	NaN	NaN
452.06503630837	2.01614731847076	2	object_onset	1	stay	0.524785670536077	5	16	-11	n/a	NaN	NaN	NaN	NaN	NaN	NaN	NaN	NaN	NaN	NaN	NaN
458.13016861552	2.01606379949953	11	object_onset	2	switch	0.853814968245462	100	3	97	n/a	NaN	NaN	NaN	NaN	NaN	NaN	NaN	NaN	NaN	NaN	NaN
464.195159804425	2.01617131818784	7	object_onset	1	switch	1.26	90	2	88	n/a	NaN	NaN	NaN	NaN	NaN	NaN	NaN	NaN	NaN	NaN	NaN
470.693498865148	2.0160487597168	2	object_onset	2	switch	1.27914033631967	16	5	11	n/a	NaN	NaN	NaN	NaN	NaN	NaN	NaN	NaN	NaN	NaN	NaN
475.575519857521	2.01613707860815	11	object_onset	2	stay	0.853814968245462	100	3	97	n/a	NaN	NaN	NaN	NaN	NaN	NaN	NaN	NaN	NaN	NaN	NaN
482.79032485676	2.0160285999591	9	object_onset	2	stay	0.814984662432368	19	71	-52	n/a	NaN	NaN	NaN	NaN	NaN	NaN	NaN	NaN	NaN	NaN	NaN
488.32208942034	11.9969737977663	9	choice	2	n/a	NaN	NaN	NaN	NaN	d	11	12	0.458911756223351	0.814984662432368	53.3206308004961	80.9956065625119	52.9909262905921	67.8652316736184	500.2988477904	11.9767583700595	1
503.484754590289	2.0162839567638	6	object_onset	2	stay	0.458911756223351	13	44	-31	n/a	NaN	NaN	NaN	NaN	NaN	NaN	NaN	NaN	NaN	NaN	NaN
509.283370543533	1.91617992607644	6	choice	2	n/a	NaN	NaN	NaN	NaN	d	4	3	0.458911756223351	0.458911756223351	11.5262977153973	37.0335154537144	29.5679244665883	32.5937547140354	511.189822911023	1.90645236748969	1
515.548455288779	2.01609478564933	5	object_onset	2	stay	0.36	3	71	-68	n/a	NaN	NaN	NaN	NaN	NaN	NaN	NaN	NaN	NaN	NaN	NaN
520.663702437014	2.01612619872321	12	object_onset	1	switch	0.9	18	72	-54	n/a	NaN	NaN	NaN	NaN	NaN	NaN	NaN	NaN	NaN	NaN	NaN
525.512433284835	2.01612907872186	1	object_onset	2	switch	0.763675323681471	44	1	43	n/a	NaN	NaN	NaN	NaN	NaN	NaN	NaN	NaN	NaN	NaN	NaN
532.577247835958	2.01616459825891	1	object_onset	2	stay	0	44	1	43	n/a	NaN	NaN	NaN	NaN	NaN	NaN	NaN	NaN	NaN	NaN	NaN
539.025548481179	2.01617931807414	6	object_onset	2	stay	0.9	13	44	-31	n/a	NaN	NaN	NaN	NaN	NaN	NaN	NaN	NaN	NaN	NaN	NaN
545.540402215789	2.01624843722675	3	object_onset	1	switch	0.458911756223351	11	50	-39	n/a	NaN	NaN	NaN	NaN	NaN	NaN	NaN	NaN	NaN	NaN	NaN
552.738657661568	2.01613163866568	8	object_onset	1	stay	0.9	44	16	28	n/a	NaN	NaN	NaN	NaN	NaN	NaN	NaN	NaN	NaN	NaN	NaN
557.720691805764	2.0160973991151	9	object_onset	1	stay	0.36	71	19	52	n/a	NaN	NaN	NaN	NaN	NaN	NaN	NaN	NaN	NaN	NaN	NaN
563.702417153836	2.01613451866433	8	object_onset	1	stay	0.36	44	16	28	n/a	NaN	NaN	NaN	NaN	NaN	NaN	NaN	NaN	NaN	NaN	NaN
570.483969640074	2.01618603800307	12	object_onset	2	switch	0.524785670536077	72	18	54	n/a	NaN	NaN	NaN	NaN	NaN	NaN	NaN	NaN	NaN	NaN	NaN
577.781972960976	2.01625227718614	2	object_onset	1	switch	0.814984662432368	5	16	-11	n/a	NaN	NaN	NaN	NaN	NaN	NaN	NaN	NaN	NaN	NaN	NaN
584.480335765431	2.01614059854182	6	object_onset	1	stay	0.524785670536077	44	13	31	n/a	NaN	NaN	NaN	NaN	NaN	NaN	NaN	NaN	NaN	NaN	NaN
591.145222827618	2.01613483866095	5	object_onset	1	stay	0.36	71	3	68	n/a	NaN	NaN	NaN	NaN	NaN	NaN	NaN	NaN	NaN	NaN	NaN
597.160310319334	2.01613163869479	10	object_onset	2	switch	1.27914033631967	50	5	45	n/a	NaN	NaN	NaN	NaN	NaN	NaN	NaN	NaN	NaN	NaN	NaN
602.842190769472	2.01614027857431	5	object_onset	1	switch	1.27914033631967	71	3	68	n/a	NaN	NaN	NaN	NaN	NaN	NaN	NaN	NaN	NaN	NaN	NaN
609.107185862318	2.01604523978312	4	object_onset	1	stay	0.524785670536077	14	2	12	n/a	NaN	NaN	NaN	NaN	NaN	NaN	NaN	NaN	NaN	NaN	NaN
613.372752148076	4.23221246196772	4	choice	1	n/a	NaN	NaN	NaN	NaN	d	5	2	0.524785670536077	0.569209978830308	56.8490675010205	9.13254365480929	0.93905438200614	14.4890326431482	617.585325495136	4.21257334706024	1
620.62085561172	2.01614475852693	4	object_onset	2	switch	0	2	14	-12	n/a	NaN	NaN	NaN	NaN	NaN	NaN	NaN	NaN	NaN	NaN	NaN
627.185765361646	2.01617771812016	4	object_onset	2	stay	0	2	14	-12	n/a	NaN	NaN	NaN	NaN	NaN	NaN	NaN	NaN	NaN	NaN	NaN
633.034275412268	2.01610635899124	3	object_onset	2	stay	0.763675323681471	50	11	39	n/a	NaN	NaN	NaN	NaN	NaN	NaN	NaN	NaN	NaN	NaN	NaN
639.165993768402	2.01615115843015	10	object_onset	1	switch	0.9	5	50	-45	n/a	NaN	NaN	NaN	NaN	NaN	NaN	NaN	NaN	NaN	NaN	NaN
646.980610161991	2.01615467839292	3	object_onset	2	switch	0.9	50	11	39	n/a	NaN	NaN	NaN	NaN	NaN	NaN	NaN	NaN	NaN	NaN	NaN
652.145940898656	13.9629886219045	3	choice	2	n/a	NaN	NaN	NaN	NaN	d	9	7	0.648999229583518	1.08747413762351	31.2285063350093	48.3436681716825	59.8748977484675	79.370433738819	666.100241628999	13.9543007303437	1
670.541069087456	2.01613739860477	6	object_onset	1	switch	0.458911756223351	44	13	31	n/a	NaN	NaN	NaN	NaN	NaN	NaN	NaN	NaN	NaN	NaN	NaN
675.489715808362	2.01623659735196	1	object_onset	1	stay	0.9	1	44	-43	n/a	NaN	NaN	NaN	NaN	NaN	NaN	NaN	NaN	NaN	NaN	NaN
681.521564050898	2.01612747870968	9	object_onset	2	switch	1.08747413762351	19	71	-52	n/a	NaN	NaN	NaN	NaN	NaN	NaN	NaN	NaN	NaN	NaN	NaN
688.63637253808	2.01613163866568	5	object_onset	2	stay	0.524785670536077	3	71	-68	n/a	NaN	NaN	NaN	NaN	NaN	NaN	NaN	NaN	NaN	NaN	NaN
693.418436057924	9.68079950363608	5	choice	2	n/a	NaN	NaN	NaN	NaN	d	3	7	0.569209978830308	0.814984662432368	0.72290938457687	47.6207587871056	19.4955359903515	59.8748977484675	703.089824479015	9.67138842109125	1
706.081806659058	2.01611723887618	5	object_onset	1	switch	0	71	3	68	n/a	NaN	NaN	NaN	NaN	NaN	NaN	NaN	NaN	NaN	NaN	NaN
711.596974629763	2.01617099819123	8	object_onset	2	switch	0.853814968245462	16	44	-28	n/a	NaN	NaN	NaN	NaN	NaN	NaN	NaN	NaN	NaN	NaN	NaN
717.145578663185	2.0161178788403	9	object_onset	1	switch	0.36	71	19	52	n/a	NaN	NaN	NaN	NaN	NaN	NaN	NaN	NaN	NaN	NaN	NaN
723.410537916498	2.01615083843353	9	object_onset	2	switch	0	19	71	-52	n/a	NaN	NaN	NaN	NaN	NaN	NaN	NaN	NaN	NaN	NaN	NaN
728.442560876865	2.01616651823861	12	object_onset	1	switch	0.458911756223351	18	72	-54	n/a	NaN	NaN	NaN	NaN	NaN	NaN	NaN	NaN	NaN	NaN	NaN
733.624529165885	2.01618187804706	7	object_onset	1	stay	0.9	90	2	88	n/a	NaN	NaN	NaN	NaN	NaN	NaN	NaN	NaN	NaN	NaN	NaN
738.573243405932	2.01613451863523	7	object_onset	2	switch	0	2	90	-88	n/a	NaN	NaN	NaN	NaN	NaN	NaN	NaN	NaN	NaN	NaN	NaN
743.088729132665	10.0140686244413	7	choice	2	n/a	NaN	NaN	NaN	NaN	d	8	6	0.524785670536077	0.763675323681471	14.272887645719	11.3101527179681	46.7766790247836	46.7766790247836	753.089684960752	10.0009558280872	1
758.717949760001	2.01617611810798	9	object_onset	1	switch	0.458911756223351	71	19	52	n/a	NaN	NaN	NaN	NaN	NaN	NaN	NaN	NaN	NaN	NaN	NaN
765.016222197562	3.96574026756571	9	choice	1	n/a	NaN	NaN	NaN	NaN	d	7	5	0.458911756223351	0.524785670536077	19.4955359903515	1.4210854715202e-14	17.1151618366732	16.3922524520963	768.961467360903	3.94524516334059	1
772.747609549842	2.0161460385134	3	object_onset	2	switch	0.648999229583518	50	11	39	n/a	NaN	NaN	NaN	NaN	NaN	NaN	NaN	NaN	NaN	NaN	NaN
779.895770260802	2.01614603848429	6	object_onset	2	stay	0.458911756223351	13	44	-31	n/a	NaN	NaN	NaN	NaN	NaN	NaN	NaN	NaN	NaN	NaN	NaN
784.777794773137	2.01616459825891	9	object_onset	2	stay	0.458911756223351	19	71	-52	n/a	NaN	NaN	NaN	NaN	NaN	NaN	NaN	NaN	NaN	NaN	NaN
791.226100538275	2.016174518154	3	object_onset	2	stay	0.648999229583518	50	11	39	n/a	NaN	NaN	NaN	NaN	NaN	NaN	NaN	NaN	NaN	NaN	NaN
798.790795890876	2.01606987946434	12	object_onset	1	switch	0.458911756223351	18	72	-54	n/a	NaN	NaN	NaN	NaN	NaN	NaN	NaN	NaN	NaN	NaN	NaN
803.872821747209	2.01613867856213	6	object_onset	1	stay	0.648999229583518	44	13	31	n/a	NaN	NaN	NaN	NaN	NaN	NaN	NaN	NaN	NaN	NaN	NaN
810.52103989743	2.01616779822507	3	object_onset	1	stay	0.458911756223351	11	50	-39	n/a	NaN	NaN	NaN	NaN	NaN	NaN	NaN	NaN	NaN	NaN	NaN
815.53639618578	2.01614123856416	4	object_onset	1	stay	0.763675323681471	14	2	12	n/a	NaN	NaN	NaN	NaN	NaN	NaN	NaN	NaN	NaN	NaN	NaN
821.284926684137	2.01613963858108	8	object_onset	2	switch	1.26	16	44	-28	n/a	NaN	NaN	NaN	NaN	NaN	NaN	NaN	NaN	NaN	NaN	NaN
826.45021006139	2.01605675960309	6	object_onset	2	stay	0.814984662432368	13	44	-31	n/a	NaN	NaN	NaN	NaN	NaN	NaN	NaN	NaN	NaN	NaN	NaN
832.915180578566	2.01617323813844	8	object_onset	2	stay	0.814984662432368	16	44	-28	n/a	NaN	NaN	NaN	NaN	NaN	NaN	NaN	NaN	NaN	NaN	NaN
838.147139283712	2.01613035870832	3	object_onset	2	stay	0.9	50	11	39	n/a	NaN	NaN	NaN	NaN	NaN	NaN	NaN	NaN	NaN	NaN	NaN
844.195543159643	2.01606891944539	10	object_onset	2	stay	0.9	50	5	45	n/a	NaN	NaN	NaN	NaN	NaN	NaN	NaN	NaN	NaN	NaN	NaN
850.693853100733	7.28147552718292	10	choice	2	n/a	NaN	NaN	NaN	NaN	d	12	3	0.458911756223351	0.9	22.0921244654868	2.1316282072803e-14	12.9906848652376	6.10671340736224	857.964980277058	7.27112717632554	1
861.441069055465	2.01612875872524	9	object_onset	1	switch	0.763675323681471	71	19	52	n/a	NaN	NaN	NaN	NaN	NaN	NaN	NaN	NaN	NaN	NaN	NaN
869.08901968904	2.01614219855401	4	object_onset	1	stay	0.9	14	2	12	n/a	NaN	NaN	NaN	NaN	NaN	NaN	NaN	NaN	NaN	NaN	NaN
875.520560543402	2.0162413973303	2	object_onset	1	stay	0.569209978830308	5	16	-11	n/a	NaN	NaN	NaN	NaN	NaN	NaN	NaN	NaN	NaN	NaN	NaN
881.302484545013	6.29837035632227	2	choice	1	n/a	NaN	NaN	NaN	NaN	d	5	1	0.524785670536077	0.853814968245462	4.13404913999263	65.9816111558298	28.3236873757602	13.5499782611421	887.583981191914	6.28149664690136	1
891.716431698937	2.0161258787557	10	object_onset	1	stay	1.26	5	50	-45	n/a	NaN	NaN	NaN	NaN	NaN	NaN	NaN	NaN	NaN	NaN	NaN
897.681563014106	2.01613259865553	8	object_onset	2	switch	0.569209978830308	16	44	-28	n/a	NaN	NaN	NaN	NaN	NaN	NaN	NaN	NaN	NaN	NaN	NaN
904.113205627218	2.01611339888768	11	object_onset	2	stay	0.853814968245462	100	3	97	n/a	NaN	NaN	NaN	NaN	NaN	NaN	NaN	NaN	NaN	NaN	NaN
908.545349994034	10.9471353797708	11	choice	2	n/a	NaN	NaN	NaN	NaN	d	9	2	0.814984662432368	0.853814968245462	80.9956065625119	83.8378807534661	67.8652316736184	1.88362051778864	919.476734530355	10.9313845363213	1
924.957796046714	2.01609387915232	5	object_onset	2	stay	1.20747670784989	3	71	-68	n/a	NaN	NaN	NaN	NaN	NaN	NaN	NaN	NaN	NaN	NaN	NaN
930.023081631953	2.0161441185337	9	object_onset	1	switch	0.524785670536077	71	19	52	n/a	NaN	NaN	NaN	NaN	NaN	NaN	NaN	NaN	NaN	NaN	NaN
937.671040585439	2.01618091805722	2	object_onset	2	switch	0.9	16	5	11	n/a	NaN	NaN	NaN	NaN	NaN	NaN	NaN	NaN	NaN	NaN	NaN
945.002496608853	2.01610731898108	2	object_onset	2	stay	0	16	5	11	n/a	NaN	NaN	NaN	NaN	NaN	NaN	NaN	NaN	NaN	NaN	NaN
951.767384983046	2.01602316004573	5	object_onset	1	switch	0.853814968245462	71	3	68	n/a	NaN	NaN	NaN	NaN	NaN	NaN	NaN	NaN	NaN	NaN	NaN
957.015994360409	2.01610667898785	2	object_onset	2	switch	0.853814968245462	16	5	11	n/a	NaN	NaN	NaN	NaN	NaN	NaN	NaN	NaN	NaN	NaN	NaN
964.030809855496	2.01613739860477	12	object_onset	2	stay	0.814984662432368	72	18	54	n/a	NaN	NaN	NaN	NaN	NaN	NaN	NaN	NaN	NaN	NaN	NaN
970.129134708404	10.4306714252161	12	choice	2	n/a	NaN	NaN	NaN	NaN	d	2	8	0.524785670536077	0.814984662432368	56.1629049914503	56.1629049914503	25.7097832561599	12.9906848652376	980.549266425165	10.4201317167608	1
984.925330211903	2.01614187852829	11	object_onset	2	stay	0.36	100	3	97	n/a	NaN	NaN	NaN	NaN	NaN	NaN	NaN	NaN	NaN	NaN	NaN
992.723277373501	2.01614795849309	4	object_onset	2	stay	1.27914033631967	2	14	-12	n/a	NaN	NaN	NaN	NaN	NaN	NaN	NaN	NaN	NaN	NaN	NaN
997.771881566936	2.01621803760645	12	object_onset	2	stay	1.08747413762351	72	18	54	n/a	NaN	NaN	NaN	NaN	NaN	NaN	NaN	NaN	NaN	NaN	NaN
1004.73669128612	2.01624939718749	8	object_onset	2	stay	0.524785670536077	16	44	-28	n/a	NaN	NaN	NaN	NaN	NaN	NaN	NaN	NaN	NaN	NaN	NaN
1009.41889813216	14.8628141920781	8	choice	2	n/a	NaN	NaN	NaN	NaN	d	12	4	0.524785670536077	1.26	56.1629049914503	14.4890326431482	25.7097832561599	29.5679244665883	1024.2703207864	14.851422654232	1
1029.26371542885	2.01616459825891	7	object_onset	2	stay	0.524785670536077	2	90	-88	n/a	NaN	NaN	NaN	NaN	NaN	NaN	NaN	NaN	NaN	NaN	NaN
1036.2950804774	2.0162596370792	1	object_onset	2	stay	1.53792067415716	44	1	43	n/a	NaN	NaN	NaN	NaN	NaN	NaN	NaN	NaN	NaN	NaN	NaN
1041.64381948515	2.01610603899462	12	object_onset	1	switch	0.763675323681471	18	72	-54	n/a	NaN	NaN	NaN	NaN	NaN	NaN	NaN	NaN	NaN	NaN	NaN
1047.39229046422	8.38117124297423	12	choice	1	n/a	NaN	NaN	NaN	NaN	d	4	9	0.458911756223351	1.08747413762351	52.9909262905921	3.85814121042835	53.3206308004961	70.6519376345985	1055.76692642877	8.37463596454472	1
1061.3886159501	2.01616939817904	1	object_onset	1	stay	0.763675323681471	1	44	-43	n/a	NaN	NaN	NaN	NaN	NaN	NaN	NaN	NaN	NaN	NaN	NaN
1069.10329951084	2.01613419863861	3	object_onset	2	switch	0.458911756223351	50	11	39	n/a	NaN	NaN	NaN	NaN	NaN	NaN	NaN	NaN	NaN	NaN	NaN
1076.11812108586	2.01614027857431	1	object_onset	2	stay	0.458911756223351	44	1	43	n/a	NaN	NaN	NaN	NaN	NaN	NaN	NaN	NaN	NaN	NaN	NaN
1082.09988291346	2.0161137189134	4	object_onset	1	switch	1.08747413762351	14	2	12	n/a	NaN	NaN	NaN	NaN	NaN	NaN	NaN	NaN	NaN	NaN	NaN
1089.11469456862	2.0161156388931	10	object_onset	2	switch	1.53792067415716	50	5	45	n/a	NaN	NaN	NaN	NaN	NaN	NaN	NaN	NaN	NaN	NaN	NaN
1096.47942441679	2.01613227868802	4	object_onset	2	stay	1.53792067415716	2	14	-12	n/a	NaN	NaN	NaN	NaN	NaN	NaN	NaN	NaN	NaN	NaN	NaN
1101.8446806584	31.9249590164982	4	choice	2	n/a	NaN	NaN	NaN	NaN	d	10	1	1.53792067415716	1.08747413762351	48.5598131691118	42.8127200189084	9.13254365480929	13.2665927948019	1133.76194793091	31.9172672725108	-1
1138.76833665118	2.0161421985249	9	object_onset	2	stay	0.9	19	71	-52	n/a	NaN	NaN	NaN	NaN	NaN	NaN	NaN	NaN	NaN	NaN	NaN
1144.73357324503	2.01592588122003	2	object_onset	2	stay	0.9	16	5	11	n/a	NaN	NaN	NaN	NaN	NaN	NaN	NaN	NaN	NaN	NaN	NaN
1150.26523764984	2.0162596370792	12	object_onset	1	switch	0.814984662432368	18	72	-54	n/a	NaN	NaN	NaN	NaN	NaN	NaN	NaN	NaN	NaN	NaN	NaN
1156.39707856448	2.0160225200234	5	object_onset	1	stay	0.9	71	3	68	n/a	NaN	NaN	NaN	NaN	NaN	NaN	NaN	NaN	NaN	NaN	NaN
1160.5459621464	4.3488782060158	5	choice	1	n/a	NaN	NaN	NaN	NaN	d	1	6	0.36	1.26	27.2811430344322	70.1156602958224	10.5872433333912	41.8736656369023	1164.88967689686	4.34371475045918	1
1168.64386556458	2.01613355864538	6	object_onset	1	stay	0.36	44	13	31	n/a	NaN	NaN	NaN	NaN	NaN	NaN	NaN	NaN	NaN	NaN	NaN
1173.575803054	2.01624907719088	12	object_onset	1	stay	0.648999229583518	18	72	-54	n/a	NaN	NaN	NaN	NaN	NaN	NaN	NaN	NaN	NaN	NaN	NaN
1178.82442043125	2.01624779723352	9	object_onset	2	switch	0.458911756223351	19	71	-52	n/a	NaN	NaN	NaN	NaN	NaN	NaN	NaN	NaN	NaN	NaN	NaN
1184.08977839959	2.01613739860477	11	object_onset	1	switch	0.814984662432368	3	100	-97	n/a	NaN	NaN	NaN	NaN	NaN	NaN	NaN	NaN	NaN	NaN	NaN
1189.23847254386	2.01613611864741	6	object_onset	2	switch	0.9	13	44	-31	n/a	NaN	NaN	NaN	NaN	NaN	NaN	NaN	NaN	NaN	NaN	NaN
1196.58651044036	2.01614091856754	4	object_onset	1	switch	0.458911756223351	14	2	12	n/a	NaN	NaN	NaN	NaN	NaN	NaN	NaN	NaN	NaN	NaN	NaN
1202.85153561283	2.01613579865079	11	object_onset	1	stay	1.27914033631967	3	100	-97	n/a	NaN	NaN	NaN	NaN	NaN	NaN	NaN	NaN	NaN	NaN	NaN
