onset	duration	object	trial_type	map	stayswitch	distance	value	counterfactual_value	value_diff	choicetype	object1	object2	chosen_distance	unchosen_distance	chosen_value	unchosen_value	counterfactual_chosen_value	counterfactual_unchosen_value	button	response_time	cr
8.75892686285079	2.00518847000785	6	object_onset	1	n/a	NaN	NaN	NaN	NaN	n/a	NaN	NaN	NaN	NaN	NaN	NaN	NaN	NaN	NaN	NaN	NaN
15.2646935717203	2.0051951900823	3	object_onset	1	stay	0.458911756223351	11	50	-39	n/a	NaN	NaN	NaN	NaN	NaN	NaN	NaN	NaN	NaN	NaN	NaN
21.2759325901279	2.00501439045183	12	object_onset	1	stay	0.458911756223351	18	72	-54	n/a	NaN	NaN	NaN	NaN	NaN	NaN	NaN	NaN	NaN	NaN	NaN
27.4268731003394	2.00507871026639	3	object_onset	2	switch	0.458911756223351	50	11	39	n/a	NaN	NaN	NaN	NaN	NaN	NaN	NaN	NaN	NaN	NaN	NaN
32.4019806681899	2.00517983001191	6	object_onset	1	switch	0.458911756223351	44	13	31	n/a	NaN	NaN	NaN	NaN	NaN	NaN	NaN	NaN	NaN	NaN	NaN
38.3328380809398	5.25623502803501	6	choice	1	n/a	NaN	NaN	NaN	NaN	d	3	11	0.458911756223351	0.9	32.5937547140354	40.5840886391862	37.0335154537144	86.800615681217	43.5836807993473	5.25084271840751	1
48.5792241678573	2.00507583026774	6	object_onset	2	switch	0	13	44	-31	n/a	NaN	NaN	NaN	NaN	NaN	NaN	NaN	NaN	NaN	NaN	NaN
53.4398660354782	2.00508703012019	5	object_onset	2	stay	0.36	3	71	-68	n/a	NaN	NaN	NaN	NaN	NaN	NaN	NaN	NaN	NaN	NaN	NaN
58.8999237121316	2.00499007035978	12	object_onset	1	switch	0.9	18	72	-54	n/a	NaN	NaN	NaN	NaN	NaN	NaN	NaN	NaN	NaN	NaN	NaN
66.4578320808941	2.00508639030159	8	object_onset	1	stay	0.524785670536077	44	16	28	n/a	NaN	NaN	NaN	NaN	NaN	NaN	NaN	NaN	NaN	NaN	NaN
71.3768847163301	2.00512735021766	7	object_onset	2	switch	0.524785670536077	2	90	-88	n/a	NaN	NaN	NaN	NaN	NaN	NaN	NaN	NaN	NaN	NaN	NaN
77.3751032797154	2.00510399020277	11	object_onset	2	stay	1.26	100	3	97	n/a	NaN	NaN	NaN	NaN	NaN	NaN	NaN	NaN	NaN	NaN	NaN
82.2933053568704	2.00511839007959	8	object_onset	1	switch	0.853814968245462	44	16	28	n/a	NaN	NaN	NaN	NaN	NaN	NaN	NaN	NaN	NaN	NaN	NaN
87.1786646168912	2.00509695021901	10	object_onset	2	switch	0.569209978830308	50	5	45	n/a	NaN	NaN	NaN	NaN	NaN	NaN	NaN	NaN	NaN	NaN	NaN
92.2115215138765	5.37570903857704	10	choice	2	n/a	NaN	NaN	NaN	NaN	d	4	7	1.08747413762351	1.53792067415716	48.3436681716825	48.5598131691118	85.4771471461812	9.13254365480929	97.5819195227232	5.37039800884668	1
100.952520731138	2.00518398999702	2	object_onset	2	stay	1.26	16	5	11	n/a	NaN	NaN	NaN	NaN	NaN	NaN	NaN	NaN	NaN	NaN	NaN
106.801119421842	2.0051084702136	11	object_onset	2	stay	0.853814968245462	100	3	97	n/a	NaN	NaN	NaN	NaN	NaN	NaN	NaN	NaN	NaN	NaN	NaN
112.898101635627	2.00513791013509	9	object_onset	2	stay	0.814984662432368	19	71	-52	n/a	NaN	NaN	NaN	NaN	NaN	NaN	NaN	NaN	NaN	NaN	NaN
117.05782644893	6.09778893226758	9	choice	2	n/a	NaN	NaN	NaN	NaN	d	8	3	0.36	0.648999229583518	2.84227419095423	31.2285063350093	27.2811430344322	59.8748977484675	123.150454111048	6.09262766211759	1
126.680690853042	2.00516927009448	10	object_onset	1	switch	0.763675323681471	5	50	-45	n/a	NaN	NaN	NaN	NaN	NaN	NaN	NaN	NaN	NaN	NaN	NaN
131.764002693119	2.00525982980616	5	object_onset	2	switch	1.27914033631967	3	71	-68	n/a	NaN	NaN	NaN	NaN	NaN	NaN	NaN	NaN	NaN	NaN	NaN
139.157992976601	2.00512319023255	8	object_onset	2	stay	0.853814968245462	16	44	-28	n/a	NaN	NaN	NaN	NaN	NaN	NaN	NaN	NaN	NaN	NaN	NaN
144.963610309875	2.00523422996048	7	object_onset	1	switch	0.524785670536077	90	2	88	n/a	NaN	NaN	NaN	NaN	NaN	NaN	NaN	NaN	NaN	NaN	NaN
150.968374460703	2.00510047015268	6	object_onset	2	switch	0.763675323681471	13	44	-31	n/a	NaN	NaN	NaN	NaN	NaN	NaN	NaN	NaN	NaN	NaN	NaN
158.550356383319	2.00511711009312	1	object_onset	1	switch	0.9	1	44	-43	n/a	NaN	NaN	NaN	NaN	NaN	NaN	NaN	NaN	NaN	NaN	NaN
164.61351402197	3.15722369821742	1	choice	1	n/a	NaN	NaN	NaN	NaN	d	3	10	0.458911756223351	1.08747413762351	10.2407625473549	4.13404913999263	5.74709315020333	5.74709315020331	167.765500610229	3.1519865882583	1
172.813627877855	2.00511935015675	1	object_onset	2	switch	0	44	1	43	n/a	NaN	NaN	NaN	NaN	NaN	NaN	NaN	NaN	NaN	NaN	NaN
179.822554260609	2.00483071082272	4	object_onset	2	stay	1.08747413762351	2	14	-12	n/a	NaN	NaN	NaN	NaN	NaN	NaN	NaN	NaN	NaN	NaN	NaN
185.316278432729	3.84228286275174	4	choice	2	n/a	NaN	NaN	NaN	NaN	d	5	12	0.524785670536077	1.08747413762351	0.93905438200614	70.6519376345985	56.8490675010205	3.85814121042835	189.15321442578	3.83693599305116	1
192.169061435387	2.00525118992664	5	object_onset	1	switch	0.524785670536077	71	3	68	n/a	NaN	NaN	NaN	NaN	NaN	NaN	NaN	NaN	NaN	NaN	NaN
197.589911827352	2.00514143006876	7	object_onset	2	switch	0.569209978830308	2	90	-88	n/a	NaN	NaN	NaN	NaN	NaN	NaN	NaN	NaN	NaN	NaN	NaN
204.422314069117	2.00510367017705	10	object_onset	1	switch	1.08747413762351	5	50	-45	n/a	NaN	NaN	NaN	NaN	NaN	NaN	NaN	NaN	NaN	NaN	NaN
208.627509835176	23.3806651891209	10	choice	1	n/a	NaN	NaN	NaN	NaN	d	1	2	1.26	1.08747413762351	1.77635683940025e-15	4.13404913999263	34.0707805259635	5.74709315020331	232.000879038242	23.3733692030655	-1
235.922091349494	2.0050668703625	10	object_onset	1	stay	0	5	50	-45	n/a	NaN	NaN	NaN	NaN	NaN	NaN	NaN	NaN	NaN	NaN	NaN
241.385541019728	2.00508447026368	12	object_onset	2	switch	0.458911756223351	72	18	54	n/a	NaN	NaN	NaN	NaN	NaN	NaN	NaN	NaN	NaN	NaN	NaN
246.61099018692	2.00512511015404	1	object_onset	1	switch	0.763675323681471	1	44	-43	n/a	NaN	NaN	NaN	NaN	NaN	NaN	NaN	NaN	NaN	NaN	NaN
252.196902341908	2.00512383016758	10	object_onset	2	switch	1.08747413762351	50	5	45	n/a	NaN	NaN	NaN	NaN	NaN	NaN	NaN	NaN	NaN	NaN	NaN
257.259787981166	2.00516703003086	1	object_onset	1	switch	1.08747413762351	1	44	-43	n/a	NaN	NaN	NaN	NaN	NaN	NaN	NaN	NaN	NaN	NaN	NaN
262.201048253919	2.00513791013509	2	object_onset	1	stay	0.524785670536077	5	16	-11	n/a	NaN	NaN	NaN	NaN	NaN	NaN	NaN	NaN	NaN	NaN	NaN
269.689123796881	2.00508255022578	6	object_onset	2	switch	0.524785670536077	13	44	-31	n/a	NaN	NaN	NaN	NaN	NaN	NaN	NaN	NaN	NaN	NaN	NaN
276.418058077339	5.94558090448845	6	choice	2	n/a	NaN	NaN	NaN	NaN	d	12	9	0.458911756223351	0.648999229583518	5.80500911870512	59.1256399192012	27.2811430344321	25.70978325616	282.358369231923	5.94031115458347	1
285.277589546982	2.00514271017164	12	object_onset	2	stay	0.648999229583518	72	18	54	n/a	NaN	NaN	NaN	NaN	NaN	NaN	NaN	NaN	NaN	NaN	NaN
290.555456853472	2.00505887030158	11	object_onset	1	switch	0.36	3	100	-97	n/a	NaN	NaN	NaN	NaN	NaN	NaN	NaN	NaN	NaN	NaN	NaN
296.67218430934	2.00516895006876	2	object_onset	1	stay	0.853814968245462	5	16	-11	n/a	NaN	NaN	NaN	NaN	NaN	NaN	NaN	NaN	NaN	NaN	NaN
301.778373225476	2.00500543043017	5	object_onset	1	stay	0.853814968245462	71	3	68	n/a	NaN	NaN	NaN	NaN	NaN	NaN	NaN	NaN	NaN	NaN	NaN
306.661470409948	2.00507615029346	12	object_onset	2	switch	0.9	72	18	54	n/a	NaN	NaN	NaN	NaN	NaN	NaN	NaN	NaN	NaN	NaN	NaN
312.254453271395	2.00504063034896	12	object_onset	1	switch	0	18	72	-54	n/a	NaN	NaN	NaN	NaN	NaN	NaN	NaN	NaN	NaN	NaN	NaN
317.673240307369	2.00506367022172	10	object_onset	2	switch	0.458911756223351	50	5	45	n/a	NaN	NaN	NaN	NaN	NaN	NaN	NaN	NaN	NaN	NaN	NaN
323.40451986331	2.00538206961937	3	object_onset	1	switch	0.9	11	50	-39	n/a	NaN	NaN	NaN	NaN	NaN	NaN	NaN	NaN	NaN	NaN	NaN
329.978516521165	2.00506879028399	7	object_onset	1	stay	1.08747413762351	90	2	88	n/a	NaN	NaN	NaN	NaN	NaN	NaN	NaN	NaN	NaN	NaN	NaN
335.720017177518	2.005090870196	5	object_onset	1	stay	0.569209978830308	71	3	68	n/a	NaN	NaN	NaN	NaN	NaN	NaN	NaN	NaN	NaN	NaN	NaN
343.419722714112	2.00510303024203	6	object_onset	1	stay	0.36	44	13	31	n/a	NaN	NaN	NaN	NaN	NaN	NaN	NaN	NaN	NaN	NaN	NaN
349.891263888683	2.00511135021225	2	object_onset	1	stay	0.524785670536077	5	16	-11	n/a	NaN	NaN	NaN	NaN	NaN	NaN	NaN	NaN	NaN	NaN	NaN
357.03819160664	2.00508703023661	8	object_onset	2	switch	1.20747670784989	16	44	-28	n/a	NaN	NaN	NaN	NaN	NaN	NaN	NaN	NaN	NaN	NaN	NaN
362.972614132566	2.00509663019329	2	object_onset	2	stay	1.20747670784989	16	5	11	n/a	NaN	NaN	NaN	NaN	NaN	NaN	NaN	NaN	NaN	NaN	NaN
370.296025351621	2.00509503018111	9	object_onset	1	switch	0.9	71	19	52	n/a	NaN	NaN	NaN	NaN	NaN	NaN	NaN	NaN	NaN	NaN	NaN
375.764825091464	2.00503679038957	2	object_onset	2	switch	0.9	16	5	11	n/a	NaN	NaN	NaN	NaN	NaN	NaN	NaN	NaN	NaN	NaN	NaN
381.842084143194	2.0050729502691	10	object_onset	2	stay	1.26	50	5	45	n/a	NaN	NaN	NaN	NaN	NaN	NaN	NaN	NaN	NaN	NaN	NaN
388.668185277027	2.00498751050327	11	object_onset	2	stay	0.524785670536077	100	3	97	n/a	NaN	NaN	NaN	NaN	NaN	NaN	NaN	NaN	NaN	NaN	NaN
394.780028262292	2.00505279027857	2	object_onset	2	stay	0.853814968245462	16	5	11	n/a	NaN	NaN	NaN	NaN	NaN	NaN	NaN	NaN	NaN	NaN	NaN
400.994672970148	2.00508767028805	10	object_onset	1	switch	1.26	5	50	-45	n/a	NaN	NaN	NaN	NaN	NaN	NaN	NaN	NaN	NaN	NaN	NaN
407.317807709798	2.00510175013915	6	object_onset	2	switch	1.08747413762351	13	44	-31	n/a	NaN	NaN	NaN	NaN	NaN	NaN	NaN	NaN	NaN	NaN	NaN
414.187800919404	2.0050572702894	4	object_onset	2	stay	0.458911756223351	2	14	-12	n/a	NaN	NaN	NaN	NaN	NaN	NaN	NaN	NaN	NaN	NaN	NaN
420.394370762748	2.00521854998078	3	object_onset	2	stay	0.763675323681471	50	11	39	n/a	NaN	NaN	NaN	NaN	NaN	NaN	NaN	NaN	NaN	NaN	NaN
427.503659512964	2.00507231021766	9	object_onset	1	switch	0.648999229583518	71	19	52	n/a	NaN	NaN	NaN	NaN	NaN	NaN	NaN	NaN	NaN	NaN	NaN
433.198374979082	2.00508063030429	2	object_onset	1	stay	0.9	5	16	-11	n/a	NaN	NaN	NaN	NaN	NaN	NaN	NaN	NaN	NaN	NaN	NaN
438.524532112875	2.00508799019735	10	object_onset	2	switch	1.26	50	5	45	n/a	NaN	NaN	NaN	NaN	NaN	NaN	NaN	NaN	NaN	NaN	NaN
444.724488209002	2.00511743011884	4	object_onset	1	switch	1.53792067415716	14	2	12	n/a	NaN	NaN	NaN	NaN	NaN	NaN	NaN	NaN	NaN	NaN	NaN
450.164552964037	2.00508223020006	8	object_onset	1	stay	1.26	44	16	28	n/a	NaN	NaN	NaN	NaN	NaN	NaN	NaN	NaN	NaN	NaN	NaN
455.058060048497	16.1173380146502	8	choice	1	n/a	NaN	NaN	NaN	NaN	d	2	4	1.20747670784989	1.26	38.7004681213976	29.5679244665883	0	14.4890326431482	471.170116473339	16.1120564248413	1
475.181199332117	2.00517247000244	7	object_onset	1	stay	0.524785670536077	90	2	88	n/a	NaN	NaN	NaN	NaN	NaN	NaN	NaN	NaN	NaN	NaN	NaN
481.905432501575	2.00512767012697	11	object_onset	2	switch	1.26	100	3	97	n/a	NaN	NaN	NaN	NaN	NaN	NaN	NaN	NaN	NaN	NaN	NaN
487.898356035119	2.00511743011884	4	object_onset	1	switch	1.27914033631967	14	2	12	n/a	NaN	NaN	NaN	NaN	NaN	NaN	NaN	NaN	NaN	NaN	NaN
493.593167821062	2.00517247011885	1	object_onset	2	switch	1.08747413762351	44	1	43	n/a	NaN	NaN	NaN	NaN	NaN	NaN	NaN	NaN	NaN	NaN	NaN
500.197995779803	2.0050671902718	1	object_onset	2	stay	0	44	1	43	n/a	NaN	NaN	NaN	NaN	NaN	NaN	NaN	NaN	NaN	NaN	NaN
505.54498743359	2.00505823025014	11	object_onset	2	stay	0.569209978830308	100	3	97	n/a	NaN	NaN	NaN	NaN	NaN	NaN	NaN	NaN	NaN	NaN	NaN
512.856794514926	2.00537886971142	9	object_onset	1	switch	0.814984662432368	71	19	52	n/a	NaN	NaN	NaN	NaN	NaN	NaN	NaN	NaN	NaN	NaN	NaN
518.858096592361	2.0050867103273	8	object_onset	2	switch	0.36	16	44	-28	n/a	NaN	NaN	NaN	NaN	NaN	NaN	NaN	NaN	NaN	NaN	NaN
523.721038295538	2.00516575016081	6	object_onset	1	switch	0.814984662432368	44	13	31	n/a	NaN	NaN	NaN	NaN	NaN	NaN	NaN	NaN	NaN	NaN	NaN
530.020767000038	2.00504895031918	11	object_onset	1	stay	0.9	3	100	-97	n/a	NaN	NaN	NaN	NaN	NaN	NaN	NaN	NaN	NaN	NaN	NaN
535.428788936697	12.876406957279	11	choice	1	n/a	NaN	NaN	NaN	NaN	d	9	4	0.814984662432368	1.27914033631967	67.8652316736184	11.0161641725979	80.9956065625119	98.3269133966143	548.299929344095	12.8711404073983	1
551.228289481602	2.00518655008636	12	object_onset	2	switch	0.36	72	18	54	n/a	NaN	NaN	NaN	NaN	NaN	NaN	NaN	NaN	NaN	NaN	NaN
556.983984990744	2.00508767017163	7	object_onset	1	switch	0.9	90	2	88	n/a	NaN	NaN	NaN	NaN	NaN	NaN	NaN	NaN	NaN	NaN	NaN
562.450946654193	2.00507039017975	10	object_onset	1	stay	1.08747413762351	5	50	-45	n/a	NaN	NaN	NaN	NaN	NaN	NaN	NaN	NaN	NaN	NaN	NaN
568.682844128925	2.00510111020412	11	object_onset	1	stay	0.524785670536077	3	100	-97	n/a	NaN	NaN	NaN	NaN	NaN	NaN	NaN	NaN	NaN	NaN	NaN
573.696120583452	2.00510239019059	3	object_onset	2	switch	0.524785670536077	50	11	39	n/a	NaN	NaN	NaN	NaN	NaN	NaN	NaN	NaN	NaN	NaN	NaN
580.204884726554	2.0051260702312	11	object_onset	1	switch	0.524785670536077	3	100	-97	n/a	NaN	NaN	NaN	NaN	NaN	NaN	NaN	NaN	NaN	NaN	NaN
585.317851229687	2.00509471027181	7	object_onset	2	switch	1.26	2	90	-88	n/a	NaN	NaN	NaN	NaN	NaN	NaN	NaN	NaN	NaN	NaN	NaN
592.421059991582	2.00507711025421	1	object_onset	2	stay	1.53792067415716	44	1	43	n/a	NaN	NaN	NaN	NaN	NaN	NaN	NaN	NaN	NaN	NaN	NaN
599.050539742922	5.83716575265862	1	choice	2	n/a	NaN	NaN	NaN	NaN	d	10	11	0.569209978830308	1.08747413762351	55.5141933777059	5.74709315020331	2.25042862220399	4.13404913999263	604.882392225787	5.83185248286463	1
608.162607367733	2.00508159026504	5	object_onset	2	stay	1.26	3	71	-68	n/a	NaN	NaN	NaN	NaN	NaN	NaN	NaN	NaN	NaN	NaN	NaN
614.619550490403	2.00501631037332	5	object_onset	1	switch	0	71	3	68	n/a	NaN	NaN	NaN	NaN	NaN	NaN	NaN	NaN	NaN	NaN	NaN
619.122812884161	3.33025888586417	5	choice	1	n/a	NaN	NaN	NaN	NaN	d	7	12	0.569209978830308	0.9	19.4955359903515	52.9909262905921	0.72290938457687	69.7128832525924	622.447822500137	3.32500961597543	1
626.223708370468	2.00508991023526	5	object_onset	2	switch	0	3	71	-68	n/a	NaN	NaN	NaN	NaN	NaN	NaN	NaN	NaN	NaN	NaN	NaN
631.320187225239	6.68865851778537	5	choice	2	n/a	NaN	NaN	NaN	NaN	d	2	1	0.853814968245462	1.26	13.5499782611421	41.8736656369023	65.9816111558298	70.1156602958224	638.003512633266	6.68332540802658	1
640.866084737121	2.0051423900295	9	object_onset	2	stay	0.524785670536077	19	71	-52	n/a	NaN	NaN	NaN	NaN	NaN	NaN	NaN	NaN	NaN	NaN	NaN
648.305925812572	2.00550750945695	6	object_onset	1	switch	0.458911756223351	44	13	31	n/a	NaN	NaN	NaN	NaN	NaN	NaN	NaN	NaN	NaN	NaN	NaN
653.3502418875	2.005074870307	12	object_onset	2	switch	0.648999229583518	72	18	54	n/a	NaN	NaN	NaN	NaN	NaN	NaN	NaN	NaN	NaN	NaN	NaN
658.443417388597	12.8524956431938	12	choice	2	n/a	NaN	NaN	NaN	NaN	d	6	7	0.648999229583518	0.9	59.1256399192012	70.4357926371693	25.70978325616	72.4864622809436	671.290636881953	12.8472194933565	1
675.910631851526	2.0050060703652	11	object_onset	2	stay	0.36	100	3	97	n/a	NaN	NaN	NaN	NaN	NaN	NaN	NaN	NaN	NaN	NaN	NaN
681.768603644217	5.3698111299891	11	choice	2	n/a	NaN	NaN	NaN	NaN	d	10	1	0.569209978830308	0.524785670536077	55.5141933777059	49.7671002275026	2.25042862220399	1.88362051778864	687.133110464434	5.36450682021677	-1
690.443609708222	2.00515231012832	3	object_onset	2	stay	0.524785670536077	50	11	39	n/a	NaN	NaN	NaN	NaN	NaN	NaN	NaN	NaN	NaN	NaN	NaN
696.558432527818	2.00516222999431	4	object_onset	2	stay	0.763675323681471	2	14	-12	n/a	NaN	NaN	NaN	NaN	NaN	NaN	NaN	NaN	NaN	NaN	NaN
702.24937968119	2.00507775018923	8	object_onset	1	switch	1.26	44	16	28	n/a	NaN	NaN	NaN	NaN	NaN	NaN	NaN	NaN	NaN	NaN	NaN
707.625049039838	2.00508063030429	3	object_onset	2	switch	0.9	50	11	39	n/a	NaN	NaN	NaN	NaN	NaN	NaN	NaN	NaN	NaN	NaN	NaN
714.405366581632	7.3858424591599	3	choice	2	n/a	NaN	NaN	NaN	NaN	d	9	5	0.648999229583518	0.814984662432368	31.2285063350093	47.6207587871056	59.8748977484675	59.8748977484675	721.78590089106	7.38053430942819	1
725.990474898252	2.00510495016351	5	object_onset	1	switch	0.814984662432368	71	3	68	n/a	NaN	NaN	NaN	NaN	NaN	NaN	NaN	NaN	NaN	NaN	NaN
730.926911180257	2.00511743023526	2	object_onset	1	stay	0.853814968245462	5	16	-11	n/a	NaN	NaN	NaN	NaN	NaN	NaN	NaN	NaN	NaN	NaN	NaN
736.050095263752	2.00581982883159	3	object_onset	1	stay	0.36	11	50	-39	n/a	NaN	NaN	NaN	NaN	NaN	NaN	NaN	NaN	NaN	NaN	NaN
743.020590040484	4.52939226350281	3	choice	1	n/a	NaN	NaN	NaN	NaN	d	6	5	0.458911756223351	0.814984662432368	32.5937547140354	59.8748977484675	37.0335154537144	47.6207587871056	747.544786153943	4.52419611345977	1
751.327711690799	2.00514911010396	9	object_onset	1	stay	0.648999229583518	71	19	52	n/a	NaN	NaN	NaN	NaN	NaN	NaN	NaN	NaN	NaN	NaN	NaN
756.166833919589	2.00507423025556	9	object_onset	2	switch	0	19	71	-52	n/a	NaN	NaN	NaN	NaN	NaN	NaN	NaN	NaN	NaN	NaN	NaN
762.438093558769	2.00516223011073	9	object_onset	1	switch	0	71	19	52	n/a	NaN	NaN	NaN	NaN	NaN	NaN	NaN	NaN	NaN	NaN	NaN
769.035256892326	25.7324190736981	9	choice	1	n/a	NaN	NaN	NaN	NaN	d	11	2	0.9	0.814984662432368	65.9816111558297	67.8652316736184	2.84227419095423	80.9956065625119	794.762335496256	25.7270786039298	-1
800.259144142387	2.00510175025556	1	object_onset	2	switch	1.08747413762351	44	1	43	n/a	NaN	NaN	NaN	NaN	NaN	NaN	NaN	NaN	NaN	NaN	NaN
805.926016782061	2.00508383021224	3	object_onset	1	switch	0.458911756223351	11	50	-39	n/a	NaN	NaN	NaN	NaN	NaN	NaN	NaN	NaN	NaN	NaN	NaN
811.307958128629	2.00518367008772	10	object_onset	1	stay	0.9	5	50	-45	n/a	NaN	NaN	NaN	NaN	NaN	NaN	NaN	NaN	NaN	NaN	NaN
816.9027573067	2.00510367017705	4	object_onset	1	stay	1.53792067415716	14	2	12	n/a	NaN	NaN	NaN	NaN	NaN	NaN	NaN	NaN	NaN	NaN	NaN
821.2201710972	6.52331419521943	4	choice	1	n/a	NaN	NaN	NaN	NaN	d	11	3	0.763675323681471	1.27914033631967	3.02583024744705	11.0161641725979	48.5598131691118	98.3269133966143	827.738207862596	6.51803676539566	1
831.669977913611	2.00510975020006	3	object_onset	1	stay	0.763675323681471	11	50	-39	n/a	NaN	NaN	NaN	NaN	NaN	NaN	NaN	NaN	NaN	NaN	NaN
836.532984256628	2.00514783011749	4	object_onset	2	switch	0.763675323681471	2	14	-12	n/a	NaN	NaN	NaN	NaN	NaN	NaN	NaN	NaN	NaN	NaN	NaN
843.393315084744	2.0050671902718	7	object_onset	1	switch	1.08747413762351	90	2	88	n/a	NaN	NaN	NaN	NaN	NaN	NaN	NaN	NaN	NaN	NaN	NaN
848.28167657915	2.00511135021225	2	object_onset	2	switch	1.27914033631967	16	5	11	n/a	NaN	NaN	NaN	NaN	NaN	NaN	NaN	NaN	NaN	NaN	NaN
855.662760967505	2.00514431006741	1	object_onset	2	stay	0.524785670536077	44	1	43	n/a	NaN	NaN	NaN	NaN	NaN	NaN	NaN	NaN	NaN	NaN	NaN
860.777428587317	2.00511391018517	1	object_onset	1	switch	0	1	44	-43	n/a	NaN	NaN	NaN	NaN	NaN	NaN	NaN	NaN	NaN	NaN	NaN
867.640931249363	2.00507711025421	12	object_onset	2	switch	0.763675323681471	72	18	54	n/a	NaN	NaN	NaN	NaN	NaN	NaN	NaN	NaN	NaN	NaN	NaN
872.561052362784	2.00505023030564	8	object_onset	1	switch	0.524785670536077	44	16	28	n/a	NaN	NaN	NaN	NaN	NaN	NaN	NaN	NaN	NaN	NaN	NaN
879.150816670386	2.00501855032053	5	object_onset	2	switch	0.853814968245462	3	71	-68	n/a	NaN	NaN	NaN	NaN	NaN	NaN	NaN	NaN	NaN	NaN	NaN
885.949954016018	2.0051004702691	7	object_onset	2	stay	0.569209978830308	2	90	-88	n/a	NaN	NaN	NaN	NaN	NaN	NaN	NaN	NaN	NaN	NaN	NaN
890.106912434683	6.20044665515888	7	choice	2	n/a	NaN	NaN	NaN	NaN	d	12	8	0.524785670536077	0.9	14.272887645719	70.4357926371693	46.7766790247836	72.4864622809436	896.302053180058	6.19514074537437	1
899.316079713055	2.00504479033407	1	object_onset	1	switch	1.53792067415716	1	44	-43	n/a	NaN	NaN	NaN	NaN	NaN	NaN	NaN	NaN	NaN	NaN	NaN
905.495737928199	2.00509439012967	2	object_onset	2	switch	0.524785670536077	16	5	11	n/a	NaN	NaN	NaN	NaN	NaN	NaN	NaN	NaN	NaN	NaN	NaN
911.484141790424	9.18727900041267	2	choice	2	n/a	NaN	NaN	NaN	NaN	d	7	8	1.27914033631967	1.20747670784989	14.272887645719	0	85.4771471461812	38.7004681213976	920.666280000703	9.18213821027894	-1
923.924207825447	2.00508031027857	12	object_onset	1	switch	0.814984662432368	18	72	-54	n/a	NaN	NaN	NaN	NaN	NaN	NaN	NaN	NaN	NaN	NaN	NaN
929.40060755075	2.00511903024744	9	object_onset	2	switch	0.458911756223351	19	71	-52	n/a	NaN	NaN	NaN	NaN	NaN	NaN	NaN	NaN	NaN	NaN	NaN
934.748469282873	2.00506687024608	4	object_onset	1	switch	0.9	14	2	12	n/a	NaN	NaN	NaN	NaN	NaN	NaN	NaN	NaN	NaN	NaN	NaN
940.146683878382	2.00517439004034	11	object_onset	1	stay	1.27914033631967	3	100	-97	n/a	NaN	NaN	NaN	NaN	NaN	NaN	NaN	NaN	NaN	NaN	NaN
945.398885634146	2.00509663019329	4	object_onset	2	switch	1.27914033631967	2	14	-12	n/a	NaN	NaN	NaN	NaN	NaN	NaN	NaN	NaN	NaN	NaN	NaN
951.729954758426	2.00513823016081	9	object_onset	2	stay	0.9	19	71	-52	n/a	NaN	NaN	NaN	NaN	NaN	NaN	NaN	NaN	NaN	NaN	NaN
959.410054252716	2.00525566982105	11	object_onset	1	switch	0.814984662432368	3	100	-97	n/a	NaN	NaN	NaN	NaN	NaN	NaN	NaN	NaN	NaN	NaN	NaN
965.28487977304	2.00502943026368	12	object_onset	1	stay	0.36	18	72	-54	n/a	NaN	NaN	NaN	NaN	NaN	NaN	NaN	NaN	NaN	NaN	NaN
971.132940864773	2.0050671902718	4	object_onset	2	switch	1.08747413762351	2	14	-12	n/a	NaN	NaN	NaN	NaN	NaN	NaN	NaN	NaN	NaN	NaN	NaN
976.090353746433	2.0051241501933	7	object_onset	2	stay	1.08747413762351	2	90	-88	n/a	NaN	NaN	NaN	NaN	NaN	NaN	NaN	NaN	NaN	NaN	NaN
982.89253396634	2.00508415023796	9	object_onset	1	switch	0.458911756223351	71	19	52	n/a	NaN	NaN	NaN	NaN	NaN	NaN	NaN	NaN	NaN	NaN	NaN
988.95186217234	2.00508607027587	3	object_onset	1	stay	0.648999229583518	11	50	-39	n/a	NaN	NaN	NaN	NaN	NaN	NaN	NaN	NaN	NaN	NaN	NaN
994.810951082967	2.00504639022984	8	object_onset	2	switch	0.9	16	44	-28	n/a	NaN	NaN	NaN	NaN	NaN	NaN	NaN	NaN	NaN	NaN	NaN
999.634561661631	2.00513343012426	1	object_onset	1	switch	1.27914033631967	1	44	-43	n/a	NaN	NaN	NaN	NaN	NaN	NaN	NaN	NaN	NaN	NaN	NaN
1005.27646922914	2.00505119026639	4	object_onset	1	stay	1.08747413762351	14	2	12	n/a	NaN	NaN	NaN	NaN	NaN	NaN	NaN	NaN	NaN	NaN	NaN
1010.3222893012	2.00509823020548	8	object_onset	2	switch	1.26	16	44	-28	n/a	NaN	NaN	NaN	NaN	NaN	NaN	NaN	NaN	NaN	NaN	NaN
1016.19300378941	2.0050003103679	5	object_onset	1	switch	0.853814968245462	71	3	68	n/a	NaN	NaN	NaN	NaN	NaN	NaN	NaN	NaN	NaN	NaN	NaN
1023.87885463261	2.0051007901784	6	object_onset	2	switch	0.36	13	44	-31	n/a	NaN	NaN	NaN	NaN	NaN	NaN	NaN	NaN	NaN	NaN	NaN
1031.07546705508	2.00604798842687	12	object_onset	1	switch	0.648999229583518	18	72	-54	n/a	NaN	NaN	NaN	NaN	NaN	NaN	NaN	NaN	NaN	NaN	NaN
1037.25067119871	32.2134491901379	12	choice	1	n/a	NaN	NaN	NaN	NaN	d	8	6	0.524785670536077	0.648999229583518	25.7097832561599	25.70978325616	56.1629049914503	59.1256399192012	1069.45883911895	32.2081679202383	1
1074.42745357926	2.00507679022849	4	object_onset	1	stay	1.08747413762351	14	2	12	n/a	NaN	NaN	NaN	NaN	NaN	NaN	NaN	NaN	NaN	NaN	NaN
1081.82115778339	2.00509599014185	6	object_onset	2	switch	0.458911756223351	13	44	-31	n/a	NaN	NaN	NaN	NaN	NaN	NaN	NaN	NaN	NaN	NaN	NaN
1087.59463725821	2.00602238846477	2	object_onset	1	switch	0.524785670536077	5	16	-11	n/a	NaN	NaN	NaN	NaN	NaN	NaN	NaN	NaN	NaN	NaN	NaN
1092.16551488219	23.6285248731729	2	choice	1	n/a	NaN	NaN	NaN	NaN	d	5	9	0.853814968245462	0.9	65.9816111558298	65.9816111558297	13.5499782611421	2.84227419095423	1115.78835656634	23.6228416841477	1
1120.26551853016	2.00504191033542	6	object_onset	1	stay	0.524785670536077	44	13	31	n/a	NaN	NaN	NaN	NaN	NaN	NaN	NaN	NaN	NaN	NaN	NaN
1125.84810173162	2.00502047035843	8	object_onset	2	switch	0.814984662432368	16	44	-28	n/a	NaN	NaN	NaN	NaN	NaN	NaN	NaN	NaN	NaN	NaN	NaN
1132.57177106221	4.78394889482297	8	choice	2	n/a	NaN	NaN	NaN	NaN	d	4	10	0.569209978830308	1.26	34.0707805259635	14.4890326431482	38.7004681213976	29.5679244665883	1137.35042044718	4.77864938497078	1
1140.82220450137	2.00512511015404	8	object_onset	1	switch	0	44	16	28	n/a	NaN	NaN	NaN	NaN	NaN	NaN	NaN	NaN	NaN	NaN	NaN
1146.10193196428	2.00522814993747	9	object_onset	2	switch	0.36	19	71	-52	n/a	NaN	NaN	NaN	NaN	NaN	NaN	NaN	NaN	NaN	NaN	NaN
1151.01281501539	2.00515903008636	7	object_onset	1	switch	0.458911756223351	90	2	88	n/a	NaN	NaN	NaN	NaN	NaN	NaN	NaN	NaN	NaN	NaN	NaN
1157.3470892536	5.35789467277937	7	choice	1	n/a	NaN	NaN	NaN	NaN	d	1	6	0.763675323681471	1.53792067415716	46.7766790247836	89.6111962861739	11.3101527179681	42.5965750214792	1162.69970105658	5.35261180298403	1
1165.76061101956	2.00510751025286	10	object_onset	2	switch	1.08747413762351	50	5	45	n/a	NaN	NaN	NaN	NaN	NaN	NaN	NaN	NaN	NaN	NaN	NaN
1171.92358670663	2.00576446892228	3	object_onset	2	stay	0.9	50	11	39	n/a	NaN	NaN	NaN	NaN	NaN	NaN	NaN	NaN	NaN	NaN	NaN
1176.87149144674	2.00518782995641	7	object_onset	2	stay	1.08747413762351	2	90	-88	n/a	NaN	NaN	NaN	NaN	NaN	NaN	NaN	NaN	NaN	NaN	NaN
1182.78447913378	2.00499327038415	5	object_onset	2	stay	0.569209978830308	3	71	-68	n/a	NaN	NaN	NaN	NaN	NaN	NaN	NaN	NaN	NaN	NaN	NaN
