onset	duration	object	trial_type	map	stayswitch	distance	value	counterfactual_value	value_diff	choicetype	object1	object2	chosen_distance	unchosen_distance	chosen_value	unchosen_value	counterfactual_chosen_value	counterfactual_unchosen_value	button	response_time	cr
8.78788200723648	2.01601548012695	11	object_onset	1	n/a	NaN	NaN	NaN	NaN	n/a	NaN	NaN	NaN	NaN	NaN	NaN	NaN	NaN	NaN	NaN	NaN
13.669790681015	5.99853057833388	11	choice	1	n/a	NaN	NaN	NaN	NaN	v	1	10	0.569209978830308	0.524785670536077	2.25042862220399	1.88362051778864	55.5141933777059	49.7671002275026	19.6509467561846	5.98115607516957	-1
23.4006865194388	2.016130998687	3	object_onset	2	switch	0.524785670536077	50	11	39	n/a	NaN	NaN	NaN	NaN	NaN	NaN	NaN	NaN	NaN	NaN	NaN
29.1325007463893	7.38143363970448	3	choice	2	n/a	NaN	NaN	NaN	NaN	d	4	5	0.763675323681471	0.814984662432368	48.5598131691118	47.6207587871056	3.02583024744705	59.8748977484675	36.5009879876743	7.36848724128504	1
40.4962635666307	2.01607627936755	5	object_onset	1	switch	0.814984662432368	71	3	68	n/a	NaN	NaN	NaN	NaN	NaN	NaN	NaN	NaN	NaN	NaN	NaN
45.9947866250586	2.0161146788887	12	object_onset	1	stay	0.9	18	72	-54	n/a	NaN	NaN	NaN	NaN	NaN	NaN	NaN	NaN	NaN	NaN	NaN
52.3596716712927	2.01621771760983	6	object_onset	2	switch	0.648999229583518	13	44	-31	n/a	NaN	NaN	NaN	NaN	NaN	NaN	NaN	NaN	NaN	NaN	NaN
57.4917292232276	2.01603211990732	7	object_onset	1	switch	0.763675323681471	90	2	88	n/a	NaN	NaN	NaN	NaN	NaN	NaN	NaN	NaN	NaN	NaN	NaN
63.6234584592457	2.01618123805383	8	object_onset	1	stay	0.524785670536077	44	16	28	n/a	NaN	NaN	NaN	NaN	NaN	NaN	NaN	NaN	NaN	NaN	NaN
69.1552313427092	2.01628427677497	10	object_onset	2	switch	0.569209978830308	50	5	45	n/a	NaN	NaN	NaN	NaN	NaN	NaN	NaN	NaN	NaN	NaN	NaN
74.6704613926413	2.01627915684367	5	object_onset	2	stay	1.27914033631967	3	71	-68	n/a	NaN	NaN	NaN	NaN	NaN	NaN	NaN	NaN	NaN	NaN	NaN
81.3854694293404	2.01615499838954	8	object_onset	1	switch	0.853814968245462	44	16	28	n/a	NaN	NaN	NaN	NaN	NaN	NaN	NaN	NaN	NaN	NaN	NaN
86.8007250469527	2.01615819834115	8	object_onset	2	switch	0	16	44	-28	n/a	NaN	NaN	NaN	NaN	NaN	NaN	NaN	NaN	NaN	NaN	NaN
91.816063095539	2.01613387864199	4	object_onset	1	switch	1.26	14	2	12	n/a	NaN	NaN	NaN	NaN	NaN	NaN	NaN	NaN	NaN	NaN	NaN
97.0647255922231	2.01614667849208	5	object_onset	2	switch	0.524785670536077	3	71	-68	n/a	NaN	NaN	NaN	NaN	NaN	NaN	NaN	NaN	NaN	NaN	NaN
103.862986989931	2.01609067918616	1	object_onset	2	stay	1.26	44	1	43	n/a	NaN	NaN	NaN	NaN	NaN	NaN	NaN	NaN	NaN	NaN	NaN
110.111312210822	2.01610475902271	8	object_onset	2	stay	1.27914033631967	16	44	-28	n/a	NaN	NaN	NaN	NaN	NaN	NaN	NaN	NaN	NaN	NaN	NaN
115.65984520514	2.01613387864199	8	object_onset	1	switch	0	44	16	28	n/a	NaN	NaN	NaN	NaN	NaN	NaN	NaN	NaN	NaN	NaN	NaN
121.508297656444	2.01615595837939	6	object_onset	1	stay	0.814984662432368	44	13	31	n/a	NaN	NaN	NaN	NaN	NaN	NaN	NaN	NaN	NaN	NaN	NaN
128.856389312263	2.01613675861154	8	object_onset	2	switch	0.814984662432368	16	44	-28	n/a	NaN	NaN	NaN	NaN	NaN	NaN	NaN	NaN	NaN	NaN	NaN
136.487681273735	2.01614251855062	4	object_onset	2	stay	1.26	2	14	-12	n/a	NaN	NaN	NaN	NaN	NaN	NaN	NaN	NaN	NaN	NaN	NaN
141.869608027293	15.0460883848136	4	choice	2	n/a	NaN	NaN	NaN	NaN	v	8	7	1.08747413762351	1.26	0.216144997429269	14.4890326431482	76.3446034913719	29.5679244665883	156.896270414552	15.0266623872594	1
160.498099383723	2.01600908020919	10	object_onset	2	stay	1.53792067415716	50	5	45	n/a	NaN	NaN	NaN	NaN	NaN	NaN	NaN	NaN	NaN	NaN	NaN
167.479581854815	2.01604587974725	1	object_onset	1	switch	1.08747413762351	1	44	-43	n/a	NaN	NaN	NaN	NaN	NaN	NaN	NaN	NaN	NaN	NaN	NaN
175.04427784741	2.01613387865655	6	object_onset	1	stay	0.9	44	13	31	n/a	NaN	NaN	NaN	NaN	NaN	NaN	NaN	NaN	NaN	NaN	NaN
180.426171001382	2.01612555875909	3	object_onset	2	switch	0.458911756223351	50	11	39	n/a	NaN	NaN	NaN	NaN	NaN	NaN	NaN	NaN	NaN	NaN	NaN
186.091382859537	2.01602156006265	4	object_onset	1	switch	0.763675323681471	14	2	12	n/a	NaN	NaN	NaN	NaN	NaN	NaN	NaN	NaN	NaN	NaN	NaN
191.723253373799	2.01597644061258	12	object_onset	2	switch	1.08747413762351	72	18	54	n/a	NaN	NaN	NaN	NaN	NaN	NaN	NaN	NaN	NaN	NaN	NaN
196.188690765135	11.8302696382452	12	choice	2	n/a	NaN	NaN	NaN	NaN	v	2	8	0.524785670536077	0.814984662432368	56.1629049914503	56.1629049914503	25.7097832561599	12.9906848652376	208.00505945686	11.8163686917251	1
212.86765861162	2.01613707860815	5	object_onset	1	switch	0.9	71	3	68	n/a	NaN	NaN	NaN	NaN	NaN	NaN	NaN	NaN	NaN	NaN	NaN
217.716392659422	2.01612939870392	3	object_onset	1	stay	0.814984662432368	11	50	-39	n/a	NaN	NaN	NaN	NaN	NaN	NaN	NaN	NaN	NaN	NaN	NaN
222.598476051018	2.0159930804075	4	object_onset	2	switch	0.763675323681471	2	14	-12	n/a	NaN	NaN	NaN	NaN	NaN	NaN	NaN	NaN	NaN	NaN	NaN
228.163674757336	2.01611115894048	2	object_onset	1	switch	0.569209978830308	5	16	-11	n/a	NaN	NaN	NaN	NaN	NaN	NaN	NaN	NaN	NaN	NaN	NaN
234.678627690722	2.0160842792684	9	object_onset	2	switch	0.9	19	71	-52	n/a	NaN	NaN	NaN	NaN	NaN	NaN	NaN	NaN	NaN	NaN	NaN
240.193860940621	2.01612651873438	1	object_onset	1	switch	1.08747413762351	1	44	-43	n/a	NaN	NaN	NaN	NaN	NaN	NaN	NaN	NaN	NaN	NaN	NaN
247.391961508329	2.01611915882677	10	object_onset	2	switch	1.08747413762351	50	5	45	n/a	NaN	NaN	NaN	NaN	NaN	NaN	NaN	NaN	NaN	NaN	NaN
252.523965300919	2.01613227865892	6	object_onset	2	stay	1.08747413762351	13	44	-31	n/a	NaN	NaN	NaN	NaN	NaN	NaN	NaN	NaN	NaN	NaN	NaN
257.905882134597	2.01613323864876	2	object_onset	1	switch	0.524785670536077	5	16	-11	n/a	NaN	NaN	NaN	NaN	NaN	NaN	NaN	NaN	NaN	NaN	NaN
263.587679705757	2.01614667849208	1	object_onset	2	switch	0.524785670536077	44	1	43	n/a	NaN	NaN	NaN	NaN	NaN	NaN	NaN	NaN	NaN	NaN	NaN
268.952934987377	2.01615659835807	9	object_onset	2	stay	1.08747413762351	19	71	-52	n/a	NaN	NaN	NaN	NaN	NaN	NaN	NaN	NaN	NaN	NaN	NaN
273.001919976043	6.04841315580416	9	choice	2	n/a	NaN	NaN	NaN	NaN	d	3	12	0.458911756223351	0.648999229583518	53.3206308004961	31.2285063350093	52.9909262905921	59.8748977484675	279.038954393851	6.03703441780817	1
283.415852730162	2.01615691835468	8	object_onset	2	stay	0.36	16	44	-28	n/a	NaN	NaN	NaN	NaN	NaN	NaN	NaN	NaN	NaN	NaN	NaN
289.430832703205	9.04770148468378	8	choice	2	n/a	NaN	NaN	NaN	NaN	d	2	11	0.853814968245462	1.20747670784989	83.8378807534661	0	40.5840886391862	38.7004681213976	298.472049468823	9.04121676561772	1
302.260890184087	2.0161329186667	1	object_onset	2	stay	1.27914033631967	44	1	43	n/a	NaN	NaN	NaN	NaN	NaN	NaN	NaN	NaN	NaN	NaN	NaN
308.575921132506	2.01614059857093	12	object_onset	2	stay	0.763675323681471	72	18	54	n/a	NaN	NaN	NaN	NaN	NaN	NaN	NaN	NaN	NaN	NaN	NaN
314.141124318776	2.01613995856314	10	object_onset	2	stay	0.458911756223351	50	5	45	n/a	NaN	NaN	NaN	NaN	NaN	NaN	NaN	NaN	NaN	NaN	NaN
320.239533970613	2.01613195867685	6	object_onset	1	switch	1.08747413762351	44	13	31	n/a	NaN	NaN	NaN	NaN	NaN	NaN	NaN	NaN	NaN	NaN	NaN
326.5878681834	13.3631260281982	6	choice	1	n/a	NaN	NaN	NaN	NaN	v	4	3	0.458911756223351	0.458911756223351	29.5679244665883	32.5937547140354	11.5262977153973	37.0335154537144	339.943727102291	13.3558589188906	1
343.55008657492	2.01613707860815	4	object_onset	2	switch	0.458911756223351	2	14	-12	n/a	NaN	NaN	NaN	NaN	NaN	NaN	NaN	NaN	NaN	NaN	NaN
351.214712840389	2.01613515862846	7	object_onset	2	stay	1.08747413762351	2	90	-88	n/a	NaN	NaN	NaN	NaN	NaN	NaN	NaN	NaN	NaN	NaN	NaN
356.713182139487	2.01625579713436	2	object_onset	2	stay	1.27914033631967	16	5	11	n/a	NaN	NaN	NaN	NaN	NaN	NaN	NaN	NaN	NaN	NaN	NaN
362.994999102419	2.01609707910393	3	object_onset	1	switch	0.36	11	50	-39	n/a	NaN	NaN	NaN	NaN	NaN	NaN	NaN	NaN	NaN	NaN	NaN
367.860355022771	2.01615851833776	2	object_onset	2	switch	0.36	16	5	11	n/a	NaN	NaN	NaN	NaN	NaN	NaN	NaN	NaN	NaN	NaN	NaN
374.458643556136	2.01613451863523	10	object_onset	1	switch	1.26	5	50	-45	n/a	NaN	NaN	NaN	NaN	NaN	NaN	NaN	NaN	NaN	NaN	NaN
379.940546981976	29.6588573774643	10	choice	1	n/a	NaN	NaN	NaN	NaN	v	1	6	1.08747413762351	1.08747413762351	4.13404913999263	38.7004681213976	5.74709315020331	37.0335154537144	409.588023061471	29.6474760794954	1
414.731376792421	2.01614891845384	10	object_onset	1	stay	0	5	50	-45	n/a	NaN	NaN	NaN	NaN	NaN	NaN	NaN	NaN	NaN	NaN	NaN
421.196404588874	2.01608715922339	1	object_onset	2	switch	1.08747413762351	44	1	43	n/a	NaN	NaN	NaN	NaN	NaN	NaN	NaN	NaN	NaN	NaN	NaN
427.61133381055	2.0161511584447	3	object_onset	1	switch	0.458911756223351	11	50	-39	n/a	NaN	NaN	NaN	NaN	NaN	NaN	NaN	NaN	NaN	NaN	NaN
433.759764918141	2.01612843871408	3	object_onset	1	stay	0	11	50	-39	n/a	NaN	NaN	NaN	NaN	NaN	NaN	NaN	NaN	NaN	NaN	NaN
440.191291692681	20.5113638581824	3	choice	1	n/a	NaN	NaN	NaN	NaN	v	10	11	0.9	0.524785670536077	6.10671340736224	7.99033392515088	2.1316282072803e-14	49.7671002275025	460.69691418251	20.505622489829	1
465.568087310268	2.01598860046943	9	object_onset	2	switch	0.648999229583518	19	71	-52	n/a	NaN	NaN	NaN	NaN	NaN	NaN	NaN	NaN	NaN	NaN	NaN
470.883359855667	2.0160094002058	7	object_onset	1	switch	0.458911756223351	90	2	88	n/a	NaN	NaN	NaN	NaN	NaN	NaN	NaN	NaN	NaN	NaN	NaN
477.764782775514	2.01621547763352	1	object_onset	2	switch	1.53792067415716	44	1	43	n/a	NaN	NaN	NaN	NaN	NaN	NaN	NaN	NaN	NaN	NaN	NaN
483.346760152432	2.01610507901933	10	object_onset	1	switch	1.08747413762351	5	50	-45	n/a	NaN	NaN	NaN	NaN	NaN	NaN	NaN	NaN	NaN	NaN	NaN
489.628417117361	2.01612907870731	5	object_onset	2	switch	1.27914033631967	3	71	-68	n/a	NaN	NaN	NaN	NaN	NaN	NaN	NaN	NaN	NaN	NaN	NaN
494.943719422386	2.01613259865553	7	object_onset	1	switch	0.569209978830308	90	2	88	n/a	NaN	NaN	NaN	NaN	NaN	NaN	NaN	NaN	NaN	NaN	NaN
500.675517649535	2.01613067869039	9	object_onset	2	switch	0.458911756223351	19	71	-52	n/a	NaN	NaN	NaN	NaN	NaN	NaN	NaN	NaN	NaN	NaN	NaN
508.206899497891	2.01615595837939	3	object_onset	1	switch	0.648999229583518	11	50	-39	n/a	NaN	NaN	NaN	NaN	NaN	NaN	NaN	NaN	NaN	NaN	NaN
515.354996849637	2.0161277987354	10	object_onset	1	stay	0.9	5	50	-45	n/a	NaN	NaN	NaN	NaN	NaN	NaN	NaN	NaN	NaN	NaN	NaN
520.586960994726	2.01617131818784	6	object_onset	1	stay	1.08747413762351	44	13	31	n/a	NaN	NaN	NaN	NaN	NaN	NaN	NaN	NaN	NaN	NaN	NaN
527.901697546811	2.01618827797938	9	object_onset	2	switch	0.458911756223351	19	71	-52	n/a	NaN	NaN	NaN	NaN	NaN	NaN	NaN	NaN	NaN	NaN	NaN
534.433356511712	2.01614091856754	8	object_onset	1	switch	0.36	44	16	28	n/a	NaN	NaN	NaN	NaN	NaN	NaN	NaN	NaN	NaN	NaN	NaN
541.814754951862	2.01614123854961	1	object_onset	2	switch	1.27914033631967	44	1	43	n/a	NaN	NaN	NaN	NaN	NaN	NaN	NaN	NaN	NaN	NaN	NaN
548.596188399577	16.5124643244344	1	choice	2	n/a	NaN	NaN	NaN	NaN	v	6	4	0.9	1.08747413762351	31.2864223035111	42.8127200189084	42.8345172613902	13.2665927948019	565.092281088335	16.4960926887579	1
568.141189917951	2.01613355865993	3	object_onset	2	stay	0.458911756223351	50	11	39	n/a	NaN	NaN	NaN	NaN	NaN	NaN	NaN	NaN	NaN	NaN	NaN
573.739691248658	2.01616523825214	11	object_onset	2	stay	0.524785670536077	100	3	97	n/a	NaN	NaN	NaN	NaN	NaN	NaN	NaN	NaN	NaN	NaN	NaN
580.221205559355	6.28180352308846	11	choice	2	n/a	NaN	NaN	NaN	NaN	d	5	8	0.853814968245462	1.20747670784989	83.8378807534661	97.3878590146082	40.5840886391862	67.8652316736184	586.491905221032	6.27069966167619	1
590.135381350439	2.01613867859123	10	object_onset	1	switch	0.524785670536077	5	50	-45	n/a	NaN	NaN	NaN	NaN	NaN	NaN	NaN	NaN	NaN	NaN	NaN
596.350460266258	2.01602827996248	10	object_onset	2	switch	0	50	5	45	n/a	NaN	NaN	NaN	NaN	NaN	NaN	NaN	NaN	NaN	NaN	NaN
602.065592461411	2.01612747872423	12	object_onset	2	stay	0.458911756223351	72	18	54	n/a	NaN	NaN	NaN	NaN	NaN	NaN	NaN	NaN	NaN	NaN	NaN
609.596987749595	2.01613483863184	3	object_onset	2	stay	0.458911756223351	50	11	39	n/a	NaN	NaN	NaN	NaN	NaN	NaN	NaN	NaN	NaN	NaN	NaN
616.028629722699	2.0161095589574	4	object_onset	2	stay	0.763675323681471	2	14	-12	n/a	NaN	NaN	NaN	NaN	NaN	NaN	NaN	NaN	NaN	NaN	NaN
621.826997039083	2.01612651873438	6	object_onset	2	stay	0.458911756223351	13	44	-31	n/a	NaN	NaN	NaN	NaN	NaN	NaN	NaN	NaN	NaN	NaN	NaN
627.592150689961	2.01610603899462	10	object_onset	1	switch	1.08747413762351	5	50	-45	n/a	NaN	NaN	NaN	NaN	NaN	NaN	NaN	NaN	NaN	NaN	NaN
632.524367855891	2.01606987944979	1	object_onset	1	stay	1.08747413762351	1	44	-43	n/a	NaN	NaN	NaN	NaN	NaN	NaN	NaN	NaN	NaN	NaN	NaN
639.072588854091	2.01613355865993	9	object_onset	1	stay	1.08747413762351	71	19	52	n/a	NaN	NaN	NaN	NaN	NaN	NaN	NaN	NaN	NaN	NaN	NaN
645.704139372348	2.01618475800205	2	object_onset	1	stay	0.9	5	16	-11	n/a	NaN	NaN	NaN	NaN	NaN	NaN	NaN	NaN	NaN	NaN	NaN
650.636211260091	2.01611691885046	11	object_onset	1	stay	0.853814968245462	3	100	-97	n/a	NaN	NaN	NaN	NaN	NaN	NaN	NaN	NaN	NaN	NaN	NaN
658.150797478054	2.01613547862507	1	object_onset	1	stay	0.569209978830308	1	44	-43	n/a	NaN	NaN	NaN	NaN	NaN	NaN	NaN	NaN	NaN	NaN	NaN
663.366211429689	2.01614443851577	5	object_onset	1	stay	1.26	71	3	68	n/a	NaN	NaN	NaN	NaN	NaN	NaN	NaN	NaN	NaN	NaN	NaN
668.231574389953	2.01616939820815	12	object_onset	2	switch	0.9	72	18	54	n/a	NaN	NaN	NaN	NaN	NaN	NaN	NaN	NaN	NaN	NaN	NaN
673.796698857201	2.01620875771914	4	object_onset	1	switch	1.08747413762351	14	2	12	n/a	NaN	NaN	NaN	NaN	NaN	NaN	NaN	NaN	NaN	NaN	NaN
678.928801848553	2.01609931908024	8	object_onset	1	stay	1.26	44	16	28	n/a	NaN	NaN	NaN	NaN	NaN	NaN	NaN	NaN	NaN	NaN	NaN
685.593680910868	4.78207823965931	8	choice	1	n/a	NaN	NaN	NaN	NaN	d	3	7	0.524785670536077	0.9	46.7766790247836	32.5937547140353	14.272887645719	34.0707805259635	690.37047217651	4.7767912656418	1
693.425193413583	2.01594572099566	7	object_onset	1	stay	0.524785670536077	90	2	88	n/a	NaN	NaN	NaN	NaN	NaN	NaN	NaN	NaN	NaN	NaN	NaN
698.390239609813	4.21568242828653	7	choice	1	n/a	NaN	NaN	NaN	NaN	d	9	12	0.458911756223351	0.9	19.4955359903515	72.4864622809436	17.1151618366732	70.4357926371693	702.596746472613	4.20650686279987	1
705.438365729191	2.01625867710391	12	object_onset	2	switch	0.9	72	18	54	n/a	NaN	NaN	NaN	NaN	NaN	NaN	NaN	NaN	NaN	NaN	NaN
711.120331938262	2.0160538796481	5	object_onset	2	stay	0.9	3	71	-68	n/a	NaN	NaN	NaN	NaN	NaN	NaN	NaN	NaN	NaN	NaN	NaN
716.352317203084	2.01601804009988	2	object_onset	2	stay	0.853814968245462	16	5	11	n/a	NaN	NaN	NaN	NaN	NaN	NaN	NaN	NaN	NaN	NaN	NaN
722.434056662969	2.01612971870054	7	object_onset	2	stay	1.27914033631967	2	90	-88	n/a	NaN	NaN	NaN	NaN	NaN	NaN	NaN	NaN	NaN	NaN	NaN
728.432374763972	2.01624779721897	12	object_onset	2	stay	0.9	72	18	54	n/a	NaN	NaN	NaN	NaN	NaN	NaN	NaN	NaN	NaN	NaN	NaN
733.281170890987	2.0161431585293	3	object_onset	1	switch	0.458911756223351	11	50	-39	n/a	NaN	NaN	NaN	NaN	NaN	NaN	NaN	NaN	NaN	NaN	NaN
739.596221679152	2.01614731848531	5	object_onset	2	switch	0.814984662432368	3	71	-68	n/a	NaN	NaN	NaN	NaN	NaN	NaN	NaN	NaN	NaN	NaN	NaN
747.160913511805	2.01605227966502	6	object_onset	2	stay	0.36	13	44	-31	n/a	NaN	NaN	NaN	NaN	NaN	NaN	NaN	NaN	NaN	NaN	NaN
752.02629247187	2.01611531888193	11	object_onset	2	stay	0.9	100	3	97	n/a	NaN	NaN	NaN	NaN	NaN	NaN	NaN	NaN	NaN	NaN	NaN
757.141613912667	2.016145078509	4	object_onset	1	switch	1.27914033631967	14	2	12	n/a	NaN	NaN	NaN	NaN	NaN	NaN	NaN	NaN	NaN	NaN	NaN
762.140282089284	2.01604971969209	6	object_onset	1	stay	0.458911756223351	44	13	31	n/a	NaN	NaN	NaN	NaN	NaN	NaN	NaN	NaN	NaN	NaN	NaN
768.671818495714	2.0162161176122	7	object_onset	1	stay	0.763675323681471	90	2	88	n/a	NaN	NaN	NaN	NaN	NaN	NaN	NaN	NaN	NaN	NaN	NaN
776.236621046977	2.01610347902169	4	object_onset	2	switch	1.08747413762351	2	14	-12	n/a	NaN	NaN	NaN	NaN	NaN	NaN	NaN	NaN	NaN	NaN	NaN
781.635165193147	2.01605227966502	11	object_onset	2	stay	1.27914033631967	100	3	97	n/a	NaN	NaN	NaN	NaN	NaN	NaN	NaN	NaN	NaN	NaN	NaN
786.800477690034	2.01612715874217	12	object_onset	1	switch	0.36	18	72	-54	n/a	NaN	NaN	NaN	NaN	NaN	NaN	NaN	NaN	NaN	NaN	NaN
792.482317180678	2.0161511584447	9	object_onset	1	stay	0.458911756223351	71	19	52	n/a	NaN	NaN	NaN	NaN	NaN	NaN	NaN	NaN	NaN	NaN	NaN
797.830912830206	6.61492512574478	9	choice	1	n/a	NaN	NaN	NaN	NaN	v	6	2	0.458911756223351	0.9	27.2811430344321	65.9816111558297	5.80500911870512	2.84227419095423	804.438715804834	6.6078029746277	1
809.97772155804	2.01614155854622	11	object_onset	2	switch	0.814984662432368	100	3	97	n/a	NaN	NaN	NaN	NaN	NaN	NaN	NaN	NaN	NaN	NaN	NaN
817.642422382574	2.01613835859462	6	object_onset	2	stay	0.9	13	44	-31	n/a	NaN	NaN	NaN	NaN	NaN	NaN	NaN	NaN	NaN	NaN	NaN
824.590556469862	9.99742403214623	6	choice	2	n/a	NaN	NaN	NaN	NaN	v	11	9	0.458911756223351	0.9	5.80500911870512	86.800615681217	27.2811430344321	40.5840886391862	834.570093045244	9.97953657538164	1
838.703565939504	2.01613259865553	11	object_onset	1	switch	0.9	3	100	-97	n/a	NaN	NaN	NaN	NaN	NaN	NaN	NaN	NaN	NaN	NaN	NaN
844.102141125288	2.01615467837837	7	object_onset	2	switch	1.26	2	90	-88	n/a	NaN	NaN	NaN	NaN	NaN	NaN	NaN	NaN	NaN	NaN	NaN
849.367444054296	2.01602220004133	11	object_onset	1	switch	1.26	3	100	-97	n/a	NaN	NaN	NaN	NaN	NaN	NaN	NaN	NaN	NaN	NaN	NaN
854.632700263901	2.01607595937094	9	object_onset	1	stay	0.814984662432368	71	19	52	n/a	NaN	NaN	NaN	NaN	NaN	NaN	NaN	NaN	NaN	NaN	NaN
861.497559230469	2.01613163866568	1	object_onset	1	stay	1.08747413762351	1	44	-43	n/a	NaN	NaN	NaN	NaN	NaN	NaN	NaN	NaN	NaN	NaN	NaN
866.812859615515	2.01611691886501	2	object_onset	2	switch	0.524785670536077	16	5	11	n/a	NaN	NaN	NaN	NaN	NaN	NaN	NaN	NaN	NaN	NaN	NaN
874.144269239521	2.01611371889885	9	object_onset	1	switch	0.9	71	19	52	n/a	NaN	NaN	NaN	NaN	NaN	NaN	NaN	NaN	NaN	NaN	NaN
880.142701259087	2.01610795897432	7	object_onset	1	stay	0.458911756223351	90	2	88	n/a	NaN	NaN	NaN	NaN	NaN	NaN	NaN	NaN	NaN	NaN	NaN
885.208009244045	2.01612811871746	5	object_onset	2	switch	0.569209978830308	3	71	-68	n/a	NaN	NaN	NaN	NaN	NaN	NaN	NaN	NaN	NaN	NaN	NaN
890.356675548697	5.6651958583534	5	choice	2	n/a	NaN	NaN	NaN	NaN	v	8	1	0.853814968245462	1.26	13.5499782611421	41.8736656369023	27.2811430344322	70.1156602958224	896.001777257829	5.64510170913127	1
900.170741549155	2.01613995856314	3	object_onset	2	stay	0.814984662432368	50	11	39	n/a	NaN	NaN	NaN	NaN	NaN	NaN	NaN	NaN	NaN	NaN	NaN
906.085891408075	2.01611627887178	2	object_onset	2	stay	0.36	16	5	11	n/a	NaN	NaN	NaN	NaN	NaN	NaN	NaN	NaN	NaN	NaN	NaN
911.934366899106	2.01610603899462	1	object_onset	1	switch	0.524785670536077	1	44	-43	n/a	NaN	NaN	NaN	NaN	NaN	NaN	NaN	NaN	NaN	NaN	NaN
917.249643284449	8.76433510110655	1	choice	1	n/a	NaN	NaN	NaN	NaN	d	10	9	1.08747413762351	1.08747413762351	4.13404913999263	70.1156602958224	5.74709315020331	25.481413184806	926.00161693983	8.75197365538043	1
930.09627463849	2.01613227867347	11	object_onset	1	stay	0.569209978830308	3	100	-97	n/a	NaN	NaN	NaN	NaN	NaN	NaN	NaN	NaN	NaN	NaN	NaN
935.278235247621	2.01610731898108	4	object_onset	1	stay	1.27914033631967	14	2	12	n/a	NaN	NaN	NaN	NaN	NaN	NaN	NaN	NaN	NaN	NaN	NaN
941.210247616109	2.01587692185421	7	object_onset	2	switch	1.08747413762351	2	90	-88	n/a	NaN	NaN	NaN	NaN	NaN	NaN	NaN	NaN	NaN	NaN	NaN
948.507953020744	2.01618987794791	12	object_onset	1	switch	0.9	18	72	-54	n/a	NaN	NaN	NaN	NaN	NaN	NaN	NaN	NaN	NaN	NaN	NaN
954.673108719609	2.01615403839969	11	object_onset	1	stay	0.36	3	100	-97	n/a	NaN	NaN	NaN	NaN	NaN	NaN	NaN	NaN	NaN	NaN	NaN
959.771815007756	2.01611083892931	2	object_onset	1	stay	0.853814968245462	5	16	-11	n/a	NaN	NaN	NaN	NaN	NaN	NaN	NaN	NaN	NaN	NaN	NaN
964.837125872669	2.01613451864978	8	object_onset	1	stay	1.20747670784989	44	16	28	n/a	NaN	NaN	NaN	NaN	NaN	NaN	NaN	NaN	NaN	NaN	NaN
972.21851183298	2.0161805980606	7	object_onset	2	switch	0.524785670536077	2	90	-88	n/a	NaN	NaN	NaN	NaN	NaN	NaN	NaN	NaN	NaN	NaN	NaN
978.766690911696	9.39763727749232	7	choice	2	n/a	NaN	NaN	NaN	NaN	d	12	10	0.9	1.08747413762351	70.4357926371693	48.3436681716825	72.4864622809436	85.4771471461812	988.142994055437	9.3763031437411	1
992.463207019173	2.01616683824977	2	object_onset	1	switch	1.27914033631967	5	16	-11	n/a	NaN	NaN	NaN	NaN	NaN	NaN	NaN	NaN	NaN	NaN	NaN
997.545210475771	2.01614027857431	8	object_onset	2	switch	1.20747670784989	16	44	-28	n/a	NaN	NaN	NaN	NaN	NaN	NaN	NaN	NaN	NaN	NaN	NaN
1004.79333793915	2.01611339890223	9	object_onset	2	stay	0.36	19	71	-52	n/a	NaN	NaN	NaN	NaN	NaN	NaN	NaN	NaN	NaN	NaN	NaN
1010.0085250136	2.01613771860139	11	object_onset	2	stay	0.814984662432368	100	3	97	n/a	NaN	NaN	NaN	NaN	NaN	NaN	NaN	NaN	NaN	NaN	NaN
1017.70650446283	2.01624843722675	10	object_onset	2	stay	0.524785670536077	50	5	45	n/a	NaN	NaN	NaN	NaN	NaN	NaN	NaN	NaN	NaN	NaN	NaN
1022.80515507166	7.29824619789724	10	choice	2	n/a	NaN	NaN	NaN	NaN	d	9	4	0.763675323681471	1.53792067415716	31.2285063350093	48.5598131691118	65.9816111558297	9.13254365480929	1030.0985654899	7.293410418235	1
1035.68520392866	2.01617963807075	8	object_onset	2	stay	0.569209978830308	16	44	-28	n/a	NaN	NaN	NaN	NaN	NaN	NaN	NaN	NaN	NaN	NaN	NaN
1041.28375133878	2.01616299829038	2	object_onset	2	stay	1.20747670784989	16	5	11	n/a	NaN	NaN	NaN	NaN	NaN	NaN	NaN	NaN	NaN	NaN	NaN
1045.66595552888	14.7960860648454	2	choice	2	n/a	NaN	NaN	NaN	NaN	v	12	1	0.524785670536077	0.814984662432368	28.3236873757602	56.1629049914503	4.13404913999263	12.9906848652376	1060.44197048421	14.776014955336	1
1064.84415234499	2.01624299728428	6	object_onset	1	switch	0.524785670536077	44	13	31	n/a	NaN	NaN	NaN	NaN	NaN	NaN	NaN	NaN	NaN	NaN	NaN
1070.55930757984	2.01626251704874	9	object_onset	1	stay	0.458911756223351	71	19	52	n/a	NaN	NaN	NaN	NaN	NaN	NaN	NaN	NaN	NaN	NaN	NaN
1076.40776067115	2.01623275740712	9	object_onset	1	stay	0	71	19	52	n/a	NaN	NaN	NaN	NaN	NaN	NaN	NaN	NaN	NaN	NaN	NaN
1081.7065393424	2.01607531937771	12	object_onset	1	stay	0.458911756223351	18	72	-54	n/a	NaN	NaN	NaN	NaN	NaN	NaN	NaN	NaN	NaN	NaN	NaN
1086.77180700786	17.9286319306702	12	choice	1	n/a	NaN	NaN	NaN	NaN	d	5	2	0.814984662432368	0.9	12.9906848652376	52.9909262905921	56.1629049914503	69.7128832525924	1104.69358878401	17.9217817761528	1
1108.38280674258	2.01614603849885	4	object_onset	1	stay	1.08747413762351	14	2	12	n/a	NaN	NaN	NaN	NaN	NaN	NaN	NaN	NaN	NaN	NaN	NaN
1113.18158845378	3.08252665006148	4	choice	1	n/a	NaN	NaN	NaN	NaN	d	7	5	0.524785670536077	1.08747413762351	56.8490675010205	76.3446034913719	0.93905438200614	0.216144997429269	1116.25881405	3.07722559622198	1
1121.81261865851	2.01614731848531	5	object_onset	1	stay	0.524785670536077	71	3	68	n/a	NaN	NaN	NaN	NaN	NaN	NaN	NaN	NaN	NaN	NaN	NaN
1127.07794654723	2.01613419863861	3	object_onset	2	switch	0.814984662432368	50	11	39	n/a	NaN	NaN	NaN	NaN	NaN	NaN	NaN	NaN	NaN	NaN	NaN
1132.50982883734	2.01615819834115	2	object_onset	1	switch	0.36	5	16	-11	n/a	NaN	NaN	NaN	NaN	NaN	NaN	NaN	NaN	NaN	NaN	NaN
1137.3252797805	7.44798960909247	2	choice	1	n/a	NaN	NaN	NaN	NaN	v	11	6	0.853814968245462	0.524785670536077	1.88362051778864	38.7004681213976	83.8378807534661	2.96273492775089	1144.76211976874	7.4368399882369	1
1149.55538602879	2.01613419863861	5	object_onset	1	stay	0.853814968245462	71	3	68	n/a	NaN	NaN	NaN	NaN	NaN	NaN	NaN	NaN	NaN	NaN	NaN
1153.67093050679	6.73159822965681	5	choice	1	n/a	NaN	NaN	NaN	NaN	d	7	3	0.569209978830308	0.814984662432368	19.4955359903515	59.8748977484675	0.72290938457687	47.6207587871056	1160.39649297178	6.72556246498425	1
1164.48479234979	2.01611435889208	11	object_onset	2	switch	1.20747670784989	100	3	97	n/a	NaN	NaN	NaN	NaN	NaN	NaN	NaN	NaN	NaN	NaN	NaN
1169.53347974218	2.01614123854961	7	object_onset	2	stay	1.26	2	90	-88	n/a	NaN	NaN	NaN	NaN	NaN	NaN	NaN	NaN	NaN	NaN	NaN
1175.8151530269	2.01614187854284	5	object_onset	1	switch	0.569209978830308	71	3	68	n/a	NaN	NaN	NaN	NaN	NaN	NaN	NaN	NaN	NaN	NaN	NaN
1182.99661220229	2.016101559042	6	object_onset	2	switch	0.36	13	44	-31	n/a	NaN	NaN	NaN	NaN	NaN	NaN	NaN	NaN	NaN	NaN	NaN
1189.77822787788	2.01603932966827	12	object_onset	1	switch	0.648999229583518	18	72	-54	n/a	NaN	NaN	NaN	NaN	NaN	NaN	NaN	NaN	NaN	NaN	NaN
1194.62687953655	2.01612363877939	4	object_onset	2	switch	1.08747413762351	2	14	-12	n/a	NaN	NaN	NaN	NaN	NaN	NaN	NaN	NaN	NaN	NaN	NaN
1201.89151207393	2.01628555676143	12	object_onset	1	switch	1.08747413762351	18	72	-54	n/a	NaN	NaN	NaN	NaN	NaN	NaN	NaN	NaN	NaN	NaN	NaN
