onset	duration	object	trial_type	map	stayswitch	distance	value	counterfactual_value	value_diff	choicetype	object1	object2	chosen_distance	unchosen_distance	chosen_value	unchosen_value	counterfactual_chosen_value	counterfactual_unchosen_value	button	response_time	cr
8.78611558664124	2.01615704246797	1	object_onset	1	n/a	NaN	NaN	NaN	NaN	n/a	NaN	NaN	NaN	NaN	NaN	NaN	NaN	NaN	NaN	NaN	NaN
13.834851992724	2.016134002537	7	object_onset	1	stay	1.53792067415716	90	2	88	n/a	NaN	NaN	NaN	NaN	NaN	NaN	NaN	NaN	NaN	NaN	NaN
19.1501458393177	2.01603512302972	10	object_onset	2	switch	1.08747413762351	50	5	45	n/a	NaN	NaN	NaN	NaN	NaN	NaN	NaN	NaN	NaN	NaN	NaN
24.4820991259185	2.01618520234479	2	object_onset	2	stay	1.26	16	5	11	n/a	NaN	NaN	NaN	NaN	NaN	NaN	NaN	NaN	NaN	NaN	NaN
30.9971478537191	2.01613880251534	11	object_onset	1	switch	0.853814968245462	3	100	-97	n/a	NaN	NaN	NaN	NaN	NaN	NaN	NaN	NaN	NaN	NaN	NaN
36.8956229010364	2.0160268030595	10	object_onset	1	stay	0.524785670536077	5	50	-45	n/a	NaN	NaN	NaN	NaN	NaN	NaN	NaN	NaN	NaN	NaN	NaN
43.3273062689696	2.01614328246797	7	object_onset	2	switch	1.08747413762351	2	90	-88	n/a	NaN	NaN	NaN	NaN	NaN	NaN	NaN	NaN	NaN	NaN	NaN
48.042801394593	5.63182128721382	7	choice	2	n/a	NaN	NaN	NaN	NaN	d	3	4	1.08747413762351	1.08747413762351	48.3436681716825	0.216144997429269	79.370433738819	76.3446034913719	53.6479978496209	5.60519645502791	1
58.4401194874663	2.01609336270485	7	object_onset	2	stay	0	2	90	-88	n/a	NaN	NaN	NaN	NaN	NaN	NaN	NaN	NaN	NaN	NaN	NaN
63.7887763738981	2.01616440241924	8	object_onset	1	switch	0.524785670536077	44	16	28	n/a	NaN	NaN	NaN	NaN	NaN	NaN	NaN	NaN	NaN	NaN	NaN
71.2202219829196	2.01616216247203	5	object_onset	1	stay	0.853814968245462	71	3	68	n/a	NaN	NaN	NaN	NaN	NaN	NaN	NaN	NaN	NaN	NaN	NaN
76.652027270291	2.01626648189267	7	object_onset	2	switch	0.569209978830308	2	90	-88	n/a	NaN	NaN	NaN	NaN	NaN	NaN	NaN	NaN	NaN	NaN	NaN
84.4500493597589	2.01629560178844	5	object_onset	2	stay	0.569209978830308	3	71	-68	n/a	NaN	NaN	NaN	NaN	NaN	NaN	NaN	NaN	NaN	NaN	NaN
90.8652038470609	2.01614264247473	4	object_onset	1	switch	0.524785670536077	14	2	12	n/a	NaN	NaN	NaN	NaN	NaN	NaN	NaN	NaN	NaN	NaN	NaN
96.4637680139276	2.01617880235426	1	object_onset	1	stay	1.08747413762351	1	44	-43	n/a	NaN	NaN	NaN	NaN	NaN	NaN	NaN	NaN	NaN	NaN	NaN
102.029024500691	2.01606136292685	8	object_onset	1	stay	1.27914033631967	44	16	28	n/a	NaN	NaN	NaN	NaN	NaN	NaN	NaN	NaN	NaN	NaN	NaN
106.961099066713	2.01618264237186	2	object_onset	1	stay	1.20747670784989	5	16	-11	n/a	NaN	NaN	NaN	NaN	NaN	NaN	NaN	NaN	NaN	NaN	NaN
112.0431431529	2.01614808250451	12	object_onset	2	switch	0.814984662432368	72	18	54	n/a	NaN	NaN	NaN	NaN	NaN	NaN	NaN	NaN	NaN	NaN	NaN
118.24159116036	2.01614072255325	8	object_onset	1	switch	0.524785670536077	44	16	28	n/a	NaN	NaN	NaN	NaN	NaN	NaN	NaN	NaN	NaN	NaN	NaN
125.23977772909	2.01616120239487	3	object_onset	1	stay	0.9	11	50	-39	n/a	NaN	NaN	NaN	NaN	NaN	NaN	NaN	NaN	NaN	NaN	NaN
131.088308376144	7.1648500887095	3	choice	1	n/a	NaN	NaN	NaN	NaN	d	7	11	0.524785670536077	1.08747413762351	7.99033392515088	79.370433738819	49.7671002275025	48.3436681716825	138.242136757763	7.15382838161895	1
143.668304952153	2.01626840193057	1	object_onset	2	switch	0.458911756223351	44	1	43	n/a	NaN	NaN	NaN	NaN	NaN	NaN	NaN	NaN	NaN	NaN	NaN
149.433626078593	2.01614840253023	1	object_onset	1	switch	0	1	44	-43	n/a	NaN	NaN	NaN	NaN	NaN	NaN	NaN	NaN	NaN	NaN	NaN
154.965572005254	2.01612568262499	5	object_onset	2	switch	1.26	3	71	-68	n/a	NaN	NaN	NaN	NaN	NaN	NaN	NaN	NaN	NaN	NaN	NaN
159.930965771375	2.01616344240028	2	object_onset	1	switch	0.853814968245462	5	16	-11	n/a	NaN	NaN	NaN	NaN	NaN	NaN	NaN	NaN	NaN	NaN	NaN
165.262948177871	2.01614168251399	4	object_onset	2	switch	0.569209978830308	2	14	-12	n/a	NaN	NaN	NaN	NaN	NaN	NaN	NaN	NaN	NaN	NaN	NaN
171.644626025809	2.01618424232583	3	object_onset	1	switch	0.763675323681471	11	50	-39	n/a	NaN	NaN	NaN	NaN	NaN	NaN	NaN	NaN	NaN	NaN	NaN
179.375986995292	2.01619192224462	11	object_onset	1	stay	0.524785670536077	3	100	-97	n/a	NaN	NaN	NaN	NaN	NaN	NaN	NaN	NaN	NaN	NaN	NaN
186.690791884204	2.01618264231365	7	object_onset	1	stay	1.26	90	2	88	n/a	NaN	NaN	NaN	NaN	NaN	NaN	NaN	NaN	NaN	NaN	NaN
194.472147173714	2.0161836023326	7	object_onset	1	stay	0	90	2	88	n/a	NaN	NaN	NaN	NaN	NaN	NaN	NaN	NaN	NaN	NaN	NaN
199.454240059655	2.0161576824612	6	object_onset	2	switch	0.763675323681471	13	44	-31	n/a	NaN	NaN	NaN	NaN	NaN	NaN	NaN	NaN	NaN	NaN	NaN
204.486287265841	2.01615992240841	1	object_onset	1	switch	0.9	1	44	-43	n/a	NaN	NaN	NaN	NaN	NaN	NaN	NaN	NaN	NaN	NaN	NaN
209.968203352648	7.31481256888947	1	choice	1	n/a	NaN	NaN	NaN	NaN	d	10	11	0.569209978830308	1.08747413762351	2.25042862220399	4.13404913999263	55.5141933777059	5.74709315020331	217.267061758088	7.29885840544011	1
222.381737687683	2.01615448243683	8	object_onset	2	switch	1.27914033631967	16	44	-28	n/a	NaN	NaN	NaN	NaN	NaN	NaN	NaN	NaN	NaN	NaN	NaN
226.597327372816	6.16509712755214	8	choice	2	n/a	NaN	NaN	NaN	NaN	v	5	12	0.524785670536077	0.853814968245462	56.1629049914503	13.5499782611421	25.7097832561599	27.2811430344322	232.746453697036	6.14912632422056	-1
237.611075786874	2.01627864182228	10	object_onset	1	switch	0.569209978830308	5	50	-45	n/a	NaN	NaN	NaN	NaN	NaN	NaN	NaN	NaN	NaN	NaN	NaN
243.842919153976	2.01614552253159	8	object_onset	1	stay	0.569209978830308	44	16	28	n/a	NaN	NaN	NaN	NaN	NaN	NaN	NaN	NaN	NaN	NaN	NaN
249.558148680895	2.01615672244225	5	object_onset	2	switch	0.853814968245462	3	71	-68	n/a	NaN	NaN	NaN	NaN	NaN	NaN	NaN	NaN	NaN	NaN	NaN
254.923449967464	2.01615992240841	7	object_onset	2	stay	0.569209978830308	2	90	-88	n/a	NaN	NaN	NaN	NaN	NaN	NaN	NaN	NaN	NaN	NaN	NaN
261.471791655407	2.01611896260874	10	object_onset	1	switch	1.08747413762351	5	50	-45	n/a	NaN	NaN	NaN	NaN	NaN	NaN	NaN	NaN	NaN	NaN	NaN
268.270034223853	4.7321430456941	10	choice	1	n/a	NaN	NaN	NaN	NaN	d	9	2	0.763675323681471	1.26	65.9816111558297	1.77635683940025e-15	31.2285063350093	34.0707805259635	272.994499866443	4.72446564259008	1
276.451309193741	2.01611320266966	11	object_onset	2	switch	0.524785670536077	100	3	97	n/a	NaN	NaN	NaN	NaN	NaN	NaN	NaN	NaN	NaN	NaN	NaN
282.299817760882	2.01616184244631	3	object_onset	1	switch	0.524785670536077	11	50	-39	n/a	NaN	NaN	NaN	NaN	NaN	NaN	NaN	NaN	NaN	NaN	NaN
289.614502010401	2.01612344261957	7	object_onset	1	stay	1.08747413762351	90	2	88	n/a	NaN	NaN	NaN	NaN	NaN	NaN	NaN	NaN	NaN	NaN	NaN
295.329826576868	2.01615640241653	9	object_onset	1	stay	0.458911756223351	71	19	52	n/a	NaN	NaN	NaN	NaN	NaN	NaN	NaN	NaN	NaN	NaN	NaN
301.561580984446	2.0161420024815	4	object_onset	2	switch	0.9	2	14	-12	n/a	NaN	NaN	NaN	NaN	NaN	NaN	NaN	NaN	NaN	NaN	NaN
308.193213472608	5.8318536070874	4	choice	2	n/a	NaN	NaN	NaN	NaN	d	12	1	1.08747413762351	1.08747413762351	42.8127200189084	70.6519376345985	13.2665927948019	3.85814121042835	314.004278379492	5.81106490688398	1
317.624155404046	2.01612824259792	11	object_onset	1	switch	1.27914033631967	3	100	-97	n/a	NaN	NaN	NaN	NaN	NaN	NaN	NaN	NaN	NaN	NaN	NaN
322.589531890233	2.01609272276983	11	object_onset	2	switch	0	100	3	97	n/a	NaN	NaN	NaN	NaN	NaN	NaN	NaN	NaN	NaN	NaN	NaN
330.15427189949	2.01617528236238	2	object_onset	1	switch	0.853814968245462	5	16	-11	n/a	NaN	NaN	NaN	NaN	NaN	NaN	NaN	NaN	NaN	NaN	NaN
335.369523346308	2.01624024205375	3	object_onset	1	stay	0.36	11	50	-39	n/a	NaN	NaN	NaN	NaN	NaN	NaN	NaN	NaN	NaN	NaN	NaN
342.334508154367	2.01615096250316	10	object_onset	2	switch	0.9	50	5	45	n/a	NaN	NaN	NaN	NaN	NaN	NaN	NaN	NaN	NaN	NaN	NaN
349.049489042489	2.01612376258709	10	object_onset	2	stay	0	50	5	45	n/a	NaN	NaN	NaN	NaN	NaN	NaN	NaN	NaN	NaN	NaN	NaN
356.880827772024	2.01615544245578	10	object_onset	1	switch	0	5	50	-45	n/a	NaN	NaN	NaN	NaN	NaN	NaN	NaN	NaN	NaN	NaN	NaN
362.64601897914	2.01615480246255	11	object_onset	1	stay	0.524785670536077	3	100	-97	n/a	NaN	NaN	NaN	NaN	NaN	NaN	NaN	NaN	NaN	NaN	NaN
367.894666105625	2.01615160243819	1	object_onset	2	switch	0.569209978830308	44	1	43	n/a	NaN	NaN	NaN	NaN	NaN	NaN	NaN	NaN	NaN	NaN	NaN
373.343293712183	2.01615448249504	6	object_onset	1	switch	0.9	44	13	31	n/a	NaN	NaN	NaN	NaN	NaN	NaN	NaN	NaN	NaN	NaN	NaN
378.675278998679	2.01615032245172	12	object_onset	2	switch	0.648999229583518	72	18	54	n/a	NaN	NaN	NaN	NaN	NaN	NaN	NaN	NaN	NaN	NaN	NaN
384.307029886288	5.46539552608738	12	choice	2	n/a	NaN	NaN	NaN	NaN	d	11	9	0.36	0.458911756223351	27.6749757620158	53.3206308004961	14.8743053830263	52.9909262905921	389.757251725183	5.45022183889523	1
393.638106377097	2.01606136292685	12	object_onset	2	stay	0	72	18	54	n/a	NaN	NaN	NaN	NaN	NaN	NaN	NaN	NaN	NaN	NaN	NaN
400.919605505886	2.01616344245849	6	object_onset	1	switch	0.648999229583518	44	13	31	n/a	NaN	NaN	NaN	NaN	NaN	NaN	NaN	NaN	NaN	NaN	NaN
406.201605112292	2.01615672244225	2	object_onset	1	stay	0.524785670536077	5	16	-11	n/a	NaN	NaN	NaN	NaN	NaN	NaN	NaN	NaN	NaN	NaN	NaN
411.533552958979	2.01618232228793	11	object_onset	2	switch	0.853814968245462	100	3	97	n/a	NaN	NaN	NaN	NaN	NaN	NaN	NaN	NaN	NaN	NaN	NaN
416.615625204984	2.01611480268184	7	object_onset	1	switch	1.26	90	2	88	n/a	NaN	NaN	NaN	NaN	NaN	NaN	NaN	NaN	NaN	NaN	NaN
421.047825690475	6.5316473680432	7	choice	1	n/a	NaN	NaN	NaN	NaN	v	6	8	0.524785670536077	0.763675323681471	46.7766790247836	46.7766790247836	14.272887645719	11.3101527179681	427.56818703271	6.52036134223454	-1
432.461584984383	2.01614904252347	2	object_onset	2	switch	1.27914033631967	16	5	11	n/a	NaN	NaN	NaN	NaN	NaN	NaN	NaN	NaN	NaN	NaN	NaN
438.759975232126	2.01614936249098	11	object_onset	2	stay	0.853814968245462	100	3	97	n/a	NaN	NaN	NaN	NaN	NaN	NaN	NaN	NaN	NaN	NaN	NaN
443.875340758357	2.01615160249639	9	object_onset	2	stay	0.814984662432368	19	71	-52	n/a	NaN	NaN	NaN	NaN	NaN	NaN	NaN	NaN	NaN	NaN	NaN
447.9742906834	4.53216544562019	9	choice	2	n/a	NaN	NaN	NaN	NaN	d	1	5	1.08747413762351	0.524785670536077	25.481413184806	16.3922524520963	70.1156602958224	1.4210854715202e-14	452.490724044561	4.51643336116103	-1
457.48852117511	2.01616952236509	6	object_onset	2	stay	0.458911756223351	13	44	-31	n/a	NaN	NaN	NaN	NaN	NaN	NaN	NaN	NaN	NaN	NaN	NaN
462.670550381357	2.01612440263852	5	object_onset	2	stay	0.36	3	71	-68	n/a	NaN	NaN	NaN	NaN	NaN	NaN	NaN	NaN	NaN	NaN	NaN
467.702605907514	4.09893808508059	5	choice	2	n/a	NaN	NaN	NaN	NaN	v	9	4	0.524785670536077	0.524785670536077	16.3922524520963	0.93905438200614	1.4210854715202e-14	56.8490675010205	471.787038462237	4.0844325547223	-1
475.000734716479	2.01614072255325	12	object_onset	1	switch	0.9	18	72	-54	n/a	NaN	NaN	NaN	NaN	NaN	NaN	NaN	NaN	NaN	NaN	NaN
480.665828164027	2.01627320190892	1	object_onset	2	switch	0.763675323681471	44	1	43	n/a	NaN	NaN	NaN	NaN	NaN	NaN	NaN	NaN	NaN	NaN	NaN
485.431426089141	4.96540112613002	1	choice	2	n/a	NaN	NaN	NaN	NaN	v	11	3	0.458911756223351	0.569209978830308	5.74709315020333	55.5141933777059	10.2407625473549	2.25042862220399	490.382537683821	4.9511115946807	1
495.678828421631	2.01614680251805	1	object_onset	2	stay	0	44	1	43	n/a	NaN	NaN	NaN	NaN	NaN	NaN	NaN	NaN	NaN	NaN	NaN
502.560265790729	2.01629240182228	6	object_onset	2	stay	0.9	13	44	-31	n/a	NaN	NaN	NaN	NaN	NaN	NaN	NaN	NaN	NaN	NaN	NaN
509.408662038448	2.01616600237321	3	object_onset	1	switch	0.458911756223351	11	50	-39	n/a	NaN	NaN	NaN	NaN	NaN	NaN	NaN	NaN	NaN	NaN	NaN
515.840351486346	2.01616088242736	8	object_onset	1	stay	0.9	44	16	28	n/a	NaN	NaN	NaN	NaN	NaN	NaN	NaN	NaN	NaN	NaN	NaN
523.288462935365	2.01614872249775	9	object_onset	1	stay	0.36	71	19	52	n/a	NaN	NaN	NaN	NaN	NaN	NaN	NaN	NaN	NaN	NaN	NaN
528.203874541388	2.01616920239758	8	object_onset	1	stay	0.36	44	16	28	n/a	NaN	NaN	NaN	NaN	NaN	NaN	NaN	NaN	NaN	NaN	NaN
532.419346147159	8.68123481009388	8	choice	1	n/a	NaN	NaN	NaN	NaN	v	2	7	1.20747670784989	0.524785670536077	38.7004681213976	46.7766790247836	0	14.272887645719	541.094316027302	8.67496988014318	1
544.1164861609	2.01618136232719	12	object_onset	2	switch	0.524785670536077	72	18	54	n/a	NaN	NaN	NaN	NaN	NaN	NaN	NaN	NaN	NaN	NaN	NaN
551.68119897024	2.01617880235426	2	object_onset	1	switch	0.814984662432368	5	16	-11	n/a	NaN	NaN	NaN	NaN	NaN	NaN	NaN	NaN	NaN	NaN	NaN
557.079830016824	2.01618232234614	6	object_onset	1	stay	0.524785670536077	44	13	31	n/a	NaN	NaN	NaN	NaN	NaN	NaN	NaN	NaN	NaN	NaN	NaN
562.761745143624	2.01615416246932	5	object_onset	1	stay	0.36	71	3	68	n/a	NaN	NaN	NaN	NaN	NaN	NaN	NaN	NaN	NaN	NaN	NaN
568.560243070824	2.016147762537	10	object_onset	2	switch	1.27914033631967	50	5	45	n/a	NaN	NaN	NaN	NaN	NaN	NaN	NaN	NaN	NaN	NaN	NaN
575.958392839704	2.01610840269132	5	object_onset	1	switch	1.27914033631967	71	3	68	n/a	NaN	NaN	NaN	NaN	NaN	NaN	NaN	NaN	NaN	NaN	NaN
582.773307008145	8.19791265000822	5	choice	1	n/a	NaN	NaN	NaN	NaN	v	2	10	1.27914033631967	0.853814968245462	65.9816111558298	65.9816111558298	47.6207587871056	13.5499782611421	590.963781933882	8.19047492573736	1
594.753491743235	2.01622104214039	4	object_onset	1	stay	0.524785670536077	14	2	12	n/a	NaN	NaN	NaN	NaN	NaN	NaN	NaN	NaN	NaN	NaN	NaN
600.652148869704	7.64799656963442	4	choice	1	n/a	NaN	NaN	NaN	NaN	v	12	8	1.08747413762351	1.26	3.85814121042835	29.5679244665883	70.6519376345985	14.4890326431482	608.290249166836	7.63810029713204	1
611.74926840351	2.01614744251128	4	object_onset	2	switch	0	2	14	-12	n/a	NaN	NaN	NaN	NaN	NaN	NaN	NaN	NaN	NaN	NaN	NaN
618.280933691538	2.01615672244225	4	object_onset	2	stay	0	2	14	-12	n/a	NaN	NaN	NaN	NaN	NaN	NaN	NaN	NaN	NaN	NaN	NaN
625.329137300141	2.01615928247338	3	object_onset	2	stay	0.763675323681471	50	11	39	n/a	NaN	NaN	NaN	NaN	NaN	NaN	NaN	NaN	NaN	NaN	NaN
633.127154589689	2.01605720288353	10	object_onset	1	switch	0.9	5	50	-45	n/a	NaN	NaN	NaN	NaN	NaN	NaN	NaN	NaN	NaN	NaN	NaN
638.642426036356	2.01611288264394	3	object_onset	2	switch	0.9	50	11	39	n/a	NaN	NaN	NaN	NaN	NaN	NaN	NaN	NaN	NaN	NaN	NaN
643.824431562738	2.01619608228793	6	object_onset	1	switch	0.458911756223351	44	13	31	n/a	NaN	NaN	NaN	NaN	NaN	NaN	NaN	NaN	NaN	NaN	NaN
651.405733412481	2.01625208201585	1	object_onset	1	stay	0.9	1	44	-43	n/a	NaN	NaN	NaN	NaN	NaN	NaN	NaN	NaN	NaN	NaN	NaN
658.887269661122	2.01614968245849	9	object_onset	2	switch	1.08747413762351	19	71	-52	n/a	NaN	NaN	NaN	NaN	NaN	NaN	NaN	NaN	NaN	NaN	NaN
664.102609427471	2.01603672304191	5	object_onset	2	stay	0.524785670536077	3	71	-68	n/a	NaN	NaN	NaN	NaN	NaN	NaN	NaN	NaN	NaN	NaN	NaN
669.951142634556	2.01612824253971	5	object_onset	1	switch	0	71	3	68	n/a	NaN	NaN	NaN	NaN	NaN	NaN	NaN	NaN	NaN	NaN	NaN
675.566347041575	2.01615768240299	8	object_onset	2	switch	0.853814968245462	16	44	-28	n/a	NaN	NaN	NaN	NaN	NaN	NaN	NaN	NaN	NaN	NaN	NaN
682.497916969995	2.01613464258844	9	object_onset	1	switch	0.36	71	19	52	n/a	NaN	NaN	NaN	NaN	NaN	NaN	NaN	NaN	NaN	NaN	NaN
689.062915857998	2.01615992246661	9	object_onset	2	switch	0	19	71	-52	n/a	NaN	NaN	NaN	NaN	NaN	NaN	NaN	NaN	NaN	NaN	NaN
695.061369945412	2.01614616252482	12	object_onset	1	switch	0.458911756223351	18	72	-54	n/a	NaN	NaN	NaN	NaN	NaN	NaN	NaN	NaN	NaN	NaN	NaN
700.276730191719	2.01600568316644	7	object_onset	1	stay	0.9	90	2	88	n/a	NaN	NaN	NaN	NaN	NaN	NaN	NaN	NaN	NaN	NaN	NaN
705.675347158336	2.01616344240028	7	object_onset	2	switch	0	2	90	-88	n/a	NaN	NaN	NaN	NaN	NaN	NaN	NaN	NaN	NaN	NaN	NaN
711.673823005636	2.01615992246661	9	object_onset	1	switch	0.458911756223351	71	19	52	n/a	NaN	NaN	NaN	NaN	NaN	NaN	NaN	NaN	NaN	NaN	NaN
716.622572691645	2.0161260025925	3	object_onset	2	switch	0.648999229583518	50	11	39	n/a	NaN	NaN	NaN	NaN	NaN	NaN	NaN	NaN	NaN	NaN	NaN
723.970674700802	2.01614936243277	6	object_onset	2	stay	0.458911756223351	13	44	-31	n/a	NaN	NaN	NaN	NaN	NaN	NaN	NaN	NaN	NaN	NaN	NaN
731.685390950122	2.01615640247473	9	object_onset	2	stay	0.458911756223351	19	71	-52	n/a	NaN	NaN	NaN	NaN	NaN	NaN	NaN	NaN	NaN	NaN	NaN
736.734114556282	2.01615928241517	3	object_onset	2	stay	0.648999229583518	50	11	39	n/a	NaN	NaN	NaN	NaN	NaN	NaN	NaN	NaN	NaN	NaN	NaN
742.515969683358	2.01615416246932	12	object_onset	1	switch	0.458911756223351	18	72	-54	n/a	NaN	NaN	NaN	NaN	NaN	NaN	NaN	NaN	NaN	NaN	NaN
748.48110297072	2.01609080279013	6	object_onset	1	stay	0.648999229583518	44	13	31	n/a	NaN	NaN	NaN	NaN	NaN	NaN	NaN	NaN	NaN	NaN	NaN
755.462670099223	5.71520008699736	6	choice	1	n/a	NaN	NaN	NaN	NaN	v	3	5	0.458911756223351	0.36	32.5937547140354	27.2811430344322	37.0335154537144	10.5872433333912	761.163884013367	5.70121391414432	-1
764.527012190374	2.01603064301889	3	object_onset	1	stay	0.458911756223351	11	50	-39	n/a	NaN	NaN	NaN	NaN	NaN	NaN	NaN	NaN	NaN	NaN	NaN
772.15842867957	2.01612728257896	4	object_onset	1	stay	0.763675323681471	14	2	12	n/a	NaN	NaN	NaN	NaN	NaN	NaN	NaN	NaN	NaN	NaN	NaN
777.540387806133	2.01615704246797	8	object_onset	2	switch	1.26	16	44	-28	n/a	NaN	NaN	NaN	NaN	NaN	NaN	NaN	NaN	NaN	NaN	NaN
782.822293973004	2.01621752214851	6	object_onset	2	stay	0.814984662432368	13	44	-31	n/a	NaN	NaN	NaN	NaN	NaN	NaN	NaN	NaN	NaN	NaN	NaN
789.620616861037	2.01616088242736	8	object_onset	2	stay	0.814984662432368	16	44	-28	n/a	NaN	NaN	NaN	NaN	NaN	NaN	NaN	NaN	NaN	NaN	NaN
797.185381190211	2.01616952236509	3	object_onset	2	stay	0.9	50	11	39	n/a	NaN	NaN	NaN	NaN	NaN	NaN	NaN	NaN	NaN	NaN	NaN
803.100551517389	2.01614648249233	10	object_onset	2	stay	0.9	50	5	45	n/a	NaN	NaN	NaN	NaN	NaN	NaN	NaN	NaN	NaN	NaN	NaN
808.799059204524	2.01619928225409	9	object_onset	1	switch	0.763675323681471	71	19	52	n/a	NaN	NaN	NaN	NaN	NaN	NaN	NaN	NaN	NaN	NaN	NaN
814.647584091581	2.01603128307033	4	object_onset	1	stay	0.9	14	2	12	n/a	NaN	NaN	NaN	NaN	NaN	NaN	NaN	NaN	NaN	NaN	NaN
820.329474578553	2.01615000248421	2	object_onset	1	stay	0.569209978830308	5	16	-11	n/a	NaN	NaN	NaN	NaN	NaN	NaN	NaN	NaN	NaN	NaN	NaN
824.778360103897	4.43217776552774	2	choice	1	n/a	NaN	NaN	NaN	NaN	d	4	10	0.569209978830308	1.26	9.13254365480929	1.77635683940025e-15	14.4890326431482	34.0707805259635	829.194121948211	4.41576184431324	1
832.393057633308	2.01606360293226	10	object_onset	1	stay	1.26	5	50	-45	n/a	NaN	NaN	NaN	NaN	NaN	NaN	NaN	NaN	NaN	NaN	NaN
839.391284201876	2.01615416241111	8	object_onset	2	switch	0.569209978830308	16	44	-28	n/a	NaN	NaN	NaN	NaN	NaN	NaN	NaN	NaN	NaN	NaN	NaN
844.506571328442	2.01624984201044	11	object_onset	2	stay	0.853814968245462	100	3	97	n/a	NaN	NaN	NaN	NaN	NaN	NaN	NaN	NaN	NaN	NaN	NaN
848.60551229358	6.49847440730082	11	choice	2	n/a	NaN	NaN	NaN	NaN	d	10	3	0.524785670536077	0.524785670536077	49.7671002275025	49.7671002275026	7.99033392515088	1.88362051778864	855.086426145164	6.48091385158477	1
858.536433585105	2.01616216247203	5	object_onset	2	stay	1.20747670784989	3	71	-68	n/a	NaN	NaN	NaN	NaN	NaN	NaN	NaN	NaN	NaN	NaN	NaN
864.768140952918	2.01619288232177	9	object_onset	1	switch	0.524785670536077	71	19	52	n/a	NaN	NaN	NaN	NaN	NaN	NaN	NaN	NaN	NaN	NaN	NaN
869.783421839587	4.69895088503836	9	choice	1	n/a	NaN	NaN	NaN	NaN	d	6	7	0.458911756223351	0.458911756223351	27.2811430344321	19.4955359903515	5.80500911870512	17.1151618366732	874.476581712428	4.69315987284062	1
878.181449049036	2.0161439225194	2	object_onset	2	switch	0.9	16	5	11	n/a	NaN	NaN	NaN	NaN	NaN	NaN	NaN	NaN	NaN	NaN	NaN
885.029696497484	5.58190216682851	2	choice	2	n/a	NaN	NaN	NaN	NaN	v	5	12	0.853814968245462	0.814984662432368	13.5499782611421	56.1629049914503	65.9816111558298	12.9906848652376	890.600415038003	5.57071854051901	1
893.660828188062	2.01606488286052	2	object_onset	2	stay	0	16	5	11	n/a	NaN	NaN	NaN	NaN	NaN	NaN	NaN	NaN	NaN	NaN	NaN
899.259381794953	2.01604760298505	5	object_onset	1	switch	0.853814968245462	71	3	68	n/a	NaN	NaN	NaN	NaN	NaN	NaN	NaN	NaN	NaN	NaN	NaN
904.458072361245	2.01615352247609	2	object_onset	2	switch	0.853814968245462	16	5	11	n/a	NaN	NaN	NaN	NaN	NaN	NaN	NaN	NaN	NaN	NaN	NaN
910.723031409434	2.01626968191704	12	object_onset	2	stay	0.814984662432368	72	18	54	n/a	NaN	NaN	NaN	NaN	NaN	NaN	NaN	NaN	NaN	NaN	NaN
917.604728617298	2.01615480246255	11	object_onset	2	stay	0.36	100	3	97	n/a	NaN	NaN	NaN	NaN	NaN	NaN	NaN	NaN	NaN	NaN	NaN
924.003101105103	2.01612632261822	4	object_onset	2	stay	1.27914033631967	2	14	-12	n/a	NaN	NaN	NaN	NaN	NaN	NaN	NaN	NaN	NaN	NaN	NaN
931.067956153827	2.01604728295933	12	object_onset	2	stay	1.08747413762351	72	18	54	n/a	NaN	NaN	NaN	NaN	NaN	NaN	NaN	NaN	NaN	NaN	NaN
937.332897922082	2.01630040176678	8	object_onset	2	stay	0.524785670536077	16	44	-28	n/a	NaN	NaN	NaN	NaN	NaN	NaN	NaN	NaN	NaN	NaN	NaN
942.398379527789	2.0161916022771	7	object_onset	2	stay	0.524785670536077	2	90	-88	n/a	NaN	NaN	NaN	NaN	NaN	NaN	NaN	NaN	NaN	NaN	NaN
949.929833616829	2.01612632256001	1	object_onset	2	stay	1.53792067415716	44	1	43	n/a	NaN	NaN	NaN	NaN	NaN	NaN	NaN	NaN	NaN	NaN	NaN
954.861873623042	2.01619416225003	12	object_onset	1	switch	0.763675323681471	18	72	-54	n/a	NaN	NaN	NaN	NaN	NaN	NaN	NaN	NaN	NaN	NaN	NaN
961.143644750526	2.01615480246255	1	object_onset	1	stay	0.763675323681471	1	44	-43	n/a	NaN	NaN	NaN	NaN	NaN	NaN	NaN	NaN	NaN	NaN	NaN
966.325657316833	2.0161576824612	3	object_onset	2	switch	0.458911756223351	50	11	39	n/a	NaN	NaN	NaN	NaN	NaN	NaN	NaN	NaN	NaN	NaN	NaN
970.557909002062	3.51578024425544	3	choice	2	n/a	NaN	NaN	NaN	NaN	v	7	6	0.458911756223351	1.08747413762351	37.0335154537144	48.3436681716825	32.5937547140354	79.370433738819	974.066720639763	3.508811637701	1
978.855785332271	2.01614360249368	1	object_onset	2	stay	0.458911756223351	44	1	43	n/a	NaN	NaN	NaN	NaN	NaN	NaN	NaN	NaN	NaN	NaN	NaN
984.537701739057	2.01611736259656	4	object_onset	1	switch	1.08747413762351	14	2	12	n/a	NaN	NaN	NaN	NaN	NaN	NaN	NaN	NaN	NaN	NaN	NaN
989.819682145549	2.01614424248692	10	object_onset	2	switch	1.53792067415716	50	5	45	n/a	NaN	NaN	NaN	NaN	NaN	NaN	NaN	NaN	NaN	NaN	NaN
994.018614310655	5.36529744660947	10	choice	2	n/a	NaN	NaN	NaN	NaN	d	4	9	0.763675323681471	1.53792067415716	31.2285063350093	48.5598131691118	65.9816111558297	9.13254365480929	999.372115973849	5.35350166319404	1
1004.93250336399	2.01611512264935	4	object_onset	2	stay	1.53792067415716	2	14	-12	n/a	NaN	NaN	NaN	NaN	NaN	NaN	NaN	NaN	NaN	NaN	NaN
1011.69739729253	2.01619896222837	9	object_onset	2	stay	0.9	19	71	-52	n/a	NaN	NaN	NaN	NaN	NaN	NaN	NaN	NaN	NaN	NaN	NaN
1017.59593025956	2.01615128247067	2	object_onset	2	stay	0.9	16	5	11	n/a	NaN	NaN	NaN	NaN	NaN	NaN	NaN	NaN	NaN	NaN	NaN
1023.8943323472	2.01613688253565	12	object_onset	1	switch	0.814984662432368	18	72	-54	n/a	NaN	NaN	NaN	NaN	NaN	NaN	NaN	NaN	NaN	NaN	NaN
1030.14260475553	2.01629464176949	5	object_onset	1	stay	0.9	71	3	68	n/a	NaN	NaN	NaN	NaN	NaN	NaN	NaN	NaN	NaN	NaN	NaN
1035.69130388176	2.01615736243548	6	object_onset	1	stay	0.36	44	13	31	n/a	NaN	NaN	NaN	NaN	NaN	NaN	NaN	NaN	NaN	NaN	NaN
1043.17272653093	2.01615960244089	12	object_onset	1	stay	0.648999229583518	18	72	-54	n/a	NaN	NaN	NaN	NaN	NaN	NaN	NaN	NaN	NaN	NaN	NaN
1048.10483629681	5.46528384659905	12	choice	1	n/a	NaN	NaN	NaN	NaN	d	8	2	0.814984662432368	0.524785670536077	12.9906848652376	25.7097832561599	56.1629049914503	56.1629049914503	1053.55551797355	5.4506816767389	-1
1056.58589478774	2.01627224188996	9	object_onset	2	switch	0.458911756223351	19	71	-52	n/a	NaN	NaN	NaN	NaN	NaN	NaN	NaN	NaN	NaN	NaN	NaN
1062.11793767393	2.0161557624233	11	object_onset	1	switch	0.814984662432368	3	100	-97	n/a	NaN	NaN	NaN	NaN	NaN	NaN	NaN	NaN	NaN	NaN	NaN
1068.16624176205	6.04865832644282	11	choice	1	n/a	NaN	NaN	NaN	NaN	v	1	6	0.9	0.569209978830308	40.5840886391862	2.25042862220399	86.800615681217	55.5141933777059	1074.20489341655	6.03865165449679	-1
1078.8303544143	2.01614904252347	6	object_onset	2	switch	0.9	13	44	-31	n/a	NaN	NaN	NaN	NaN	NaN	NaN	NaN	NaN	NaN	NaN	NaN
1083.87891546125	5.03219664545031	6	choice	2	n/a	NaN	NaN	NaN	NaN	v	8	1	0.9	0.814984662432368	31.2864223035111	2.96273492775089	42.8345172613902	7.105427357601e-15	1088.89870224625	5.01978678500745	-1
1093.4598598727	2.0162252021255	4	object_onset	1	switch	0.458911756223351	14	2	12	n/a	NaN	NaN	NaN	NaN	NaN	NaN	NaN	NaN	NaN	NaN	NaN
1099.45839907968	2.01607992284698	11	object_onset	1	stay	1.27914033631967	3	100	-97	n/a	NaN	NaN	NaN	NaN	NaN	NaN	NaN	NaN	NaN	NaN	NaN
