onset	duration	object	trial_type	map	stayswitch	distance	value	counterfactual_value	value_diff	choicetype	object1	object2	chosen_distance	unchosen_distance	chosen_value	unchosen_value	counterfactual_chosen_value	counterfactual_unchosen_value	button	response_time	cr
8.77535832352805	2.01614379852617	4	object_onset	1	n/a	NaN	NaN	NaN	NaN	n/a	NaN	NaN	NaN	NaN	NaN	NaN	NaN	NaN	NaN	NaN	NaN
16.1901185873212	2.01611851884081	3	object_onset	2	switch	0.763675323681471	50	11	39	n/a	NaN	NaN	NaN	NaN	NaN	NaN	NaN	NaN	NaN	NaN	NaN
20.788795915827	1.6163660677521	3	choice	2	n/a	NaN	NaN	NaN	NaN	d	2	9	0.648999229583518	0.36	31.2285063350093	34.0707805259635	59.8748977484675	6.10671340736224	22.3919823080614	1.60318639223442	-1
25.9375425394701	2.01613067868857	7	object_onset	1	switch	1.08747413762351	90	2	88	n/a	NaN	NaN	NaN	NaN	NaN	NaN	NaN	NaN	NaN	NaN	NaN
31.8027016622837	1.78285742994012	7	choice	1	n/a	NaN	NaN	NaN	NaN	d	1	12	1.53792067415716	0.9	89.6111962861739	72.4864622809436	42.5965750214792	70.4357926371693	33.57991436267	1.77721270038637	-1
37.2512234247315	2.0161546783911	3	object_onset	2	switch	1.08747413762351	50	11	39	n/a	NaN	NaN	NaN	NaN	NaN	NaN	NaN	NaN	NaN	NaN	NaN
44.0828069665695	2.01614251854153	9	object_onset	2	stay	0.648999229583518	19	71	-52	n/a	NaN	NaN	NaN	NaN	NaN	NaN	NaN	NaN	NaN	NaN	NaN
51.6474607196906	2.01613707860997	6	object_onset	1	switch	0.458911756223351	44	13	31	n/a	NaN	NaN	NaN	NaN	NaN	NaN	NaN	NaN	NaN	NaN	NaN
56.9960486893124	2.0161412385587	7	object_onset	2	switch	0.763675323681471	2	90	-88	n/a	NaN	NaN	NaN	NaN	NaN	NaN	NaN	NaN	NaN	NaN	NaN
62.144617715172	2.01625131718356	8	object_onset	2	stay	0.524785670536077	16	44	-28	n/a	NaN	NaN	NaN	NaN	NaN	NaN	NaN	NaN	NaN	NaN	NaN
67.8265580045572	2.01612523875701	3	object_onset	1	switch	0.9	11	50	-39	n/a	NaN	NaN	NaN	NaN	NaN	NaN	NaN	NaN	NaN	NaN	NaN
74.274895769302	2.01613355865265	1	object_onset	1	stay	0.458911756223351	1	44	-43	n/a	NaN	NaN	NaN	NaN	NaN	NaN	NaN	NaN	NaN	NaN	NaN
81.2563702405005	2.01612459876378	3	object_onset	1	stay	0.458911756223351	11	50	-39	n/a	NaN	NaN	NaN	NaN	NaN	NaN	NaN	NaN	NaN	NaN	NaN
88.6211352882328	2.01609963907504	3	object_onset	2	switch	0	50	11	39	n/a	NaN	NaN	NaN	NaN	NaN	NaN	NaN	NaN	NaN	NaN	NaN
95.4526362711003	2.01613995857224	7	object_onset	2	stay	1.08747413762351	2	90	-88	n/a	NaN	NaN	NaN	NaN	NaN	NaN	NaN	NaN	NaN	NaN	NaN
100.518004095309	2.01611051894179	10	object_onset	2	stay	1.08747413762351	50	5	45	n/a	NaN	NaN	NaN	NaN	NaN	NaN	NaN	NaN	NaN	NaN	NaN
104.700097182787	2.19957190934292	10	choice	2	n/a	NaN	NaN	NaN	NaN	d	7	6	1.08747413762351	1.08747413762351	48.3436681716825	37.0335154537144	85.4771471461812	38.7004681213976	106.886573575563	2.18647639277515	1
110.465410511677	2.01610027906827	4	object_onset	1	switch	1.53792067415716	14	2	12	n/a	NaN	NaN	NaN	NaN	NaN	NaN	NaN	NaN	NaN	NaN	NaN
115.547402128423	2.01613323865604	1	object_onset	2	switch	1.08747413762351	44	1	43	n/a	NaN	NaN	NaN	NaN	NaN	NaN	NaN	NaN	NaN	NaN	NaN
122.512272966835	2.01599564037315	8	object_onset	1	switch	1.27914033631967	44	16	28	n/a	NaN	NaN	NaN	NaN	NaN	NaN	NaN	NaN	NaN	NaN	NaN
127.460898887983	2.01610219904433	11	object_onset	1	stay	0.853814968245462	3	100	-97	n/a	NaN	NaN	NaN	NaN	NaN	NaN	NaN	NaN	NaN	NaN	NaN
132.793130901728	2.01584396226644	10	object_onset	2	switch	0.524785670536077	50	5	45	n/a	NaN	NaN	NaN	NaN	NaN	NaN	NaN	NaN	NaN	NaN	NaN
139.107924413103	2.01606763947711	9	object_onset	2	stay	0.763675323681471	19	71	-52	n/a	NaN	NaN	NaN	NaN	NaN	NaN	NaN	NaN	NaN	NaN	NaN
145.039666704961	2.01614699848506	9	object_onset	1	switch	0	71	19	52	n/a	NaN	NaN	NaN	NaN	NaN	NaN	NaN	NaN	NaN	NaN	NaN
151.471316357973	2.01610667898785	1	object_onset	2	switch	1.08747413762351	44	1	43	n/a	NaN	NaN	NaN	NaN	NaN	NaN	NaN	NaN	NaN	NaN	NaN
158.935984798911	2.01613579862533	2	object_onset	2	stay	0.524785670536077	16	5	11	n/a	NaN	NaN	NaN	NaN	NaN	NaN	NaN	NaN	NaN	NaN	NaN
165.884203045147	2.01602444001401	9	object_onset	2	stay	0.9	19	71	-52	n/a	NaN	NaN	NaN	NaN	NaN	NaN	NaN	NaN	NaN	NaN	NaN
173.065616141112	2.01602508000724	4	object_onset	2	stay	0.9	2	14	-12	n/a	NaN	NaN	NaN	NaN	NaN	NaN	NaN	NaN	NaN	NaN	NaN
180.030347781259	2.01625675711693	1	object_onset	2	stay	1.08747413762351	44	1	43	n/a	NaN	NaN	NaN	NaN	NaN	NaN	NaN	NaN	NaN	NaN	NaN
187.29522191563	2.01616267829013	7	object_onset	1	switch	1.53792067415716	90	2	88	n/a	NaN	NaN	NaN	NaN	NaN	NaN	NaN	NaN	NaN	NaN	NaN
193.276989823167	2.0161316386766	10	object_onset	1	stay	1.08747413762351	5	50	-45	n/a	NaN	NaN	NaN	NaN	NaN	NaN	NaN	NaN	NaN	NaN	NaN
200.175210613372	13.7630221574836	10	choice	1	n/a	NaN	NaN	NaN	NaN	d	9	11	0.763675323681471	0.524785670536077	65.9816111558297	1.88362051778864	31.2285063350093	49.7671002275026	213.924781738724	13.7495711253523	-1
217.504158508102	2.01599084043482	12	object_onset	1	stay	0.458911756223351	18	72	-54	n/a	NaN	NaN	NaN	NaN	NaN	NaN	NaN	NaN	NaN	NaN	NaN
224.918716854414	2.01614251854153	8	object_onset	2	switch	0.524785670536077	16	44	-28	n/a	NaN	NaN	NaN	NaN	NaN	NaN	NaN	NaN	NaN	NaN	NaN
231.050404810949	2.01618315803353	1	object_onset	1	switch	1.27914033631967	1	44	-43	n/a	NaN	NaN	NaN	NaN	NaN	NaN	NaN	NaN	NaN	NaN	NaN
236.682270525265	2.01613739860477	2	object_onset	1	stay	0.524785670536077	5	16	-11	n/a	NaN	NaN	NaN	NaN	NaN	NaN	NaN	NaN	NaN	NaN	NaN
244.380240054605	2.01606667948727	9	object_onset	1	stay	0.9	71	19	52	n/a	NaN	NaN	NaN	NaN	NaN	NaN	NaN	NaN	NaN	NaN	NaN
249.61219875976	2.0161821980455	6	object_onset	2	switch	0.458911756223351	13	44	-31	n/a	NaN	NaN	NaN	NaN	NaN	NaN	NaN	NaN	NaN	NaN	NaN
257.043590815987	2.01619339790705	1	object_onset	2	stay	0.9	44	1	43	n/a	NaN	NaN	NaN	NaN	NaN	NaN	NaN	NaN	NaN	NaN	NaN
262.042273072433	2.01607179942403	5	object_onset	1	switch	1.26	71	3	68	n/a	NaN	NaN	NaN	NaN	NaN	NaN	NaN	NaN	NaN	NaN	NaN
268.423852310323	2.01623275741622	7	object_onset	1	stay	0.569209978830308	90	2	88	n/a	NaN	NaN	NaN	NaN	NaN	NaN	NaN	NaN	NaN	NaN	NaN
274.922264650138	2.01614827846788	5	object_onset	1	stay	0.569209978830308	71	3	68	n/a	NaN	NaN	NaN	NaN	NaN	NaN	NaN	NaN	NaN	NaN	NaN
281.92039587346	2.01614283853814	2	object_onset	1	stay	0.853814968245462	5	16	-11	n/a	NaN	NaN	NaN	NaN	NaN	NaN	NaN	NaN	NaN	NaN	NaN
287.385639667218	2.01617035819254	12	object_onset	1	stay	0.814984662432368	18	72	-54	n/a	NaN	NaN	NaN	NaN	NaN	NaN	NaN	NaN	NaN	NaN	NaN
294.783689419557	2.01614475851238	7	object_onset	2	switch	0.9	2	90	-88	n/a	NaN	NaN	NaN	NaN	NaN	NaN	NaN	NaN	NaN	NaN	NaN
299.649084059431	2.01613579862533	6	object_onset	1	switch	0.763675323681471	44	13	31	n/a	NaN	NaN	NaN	NaN	NaN	NaN	NaN	NaN	NaN	NaN	NaN
303.947959049472	69.015236929843	6	choice	1	n/a	NaN	NaN	NaN	NaN	d	3	12	0.458911756223351	0.648999229583518	32.5937547140354	25.70978325616	37.0335154537144	59.1256399192012	372.958170442034	69.0102113925623	1
378.611756845276	2.01609067918798	1	object_onset	2	switch	0.9	44	1	43	n/a	NaN	NaN	NaN	NaN	NaN	NaN	NaN	NaN	NaN	NaN	NaN
382.827269035683	2.33274144738789	1	choice	2	n/a	NaN	NaN	NaN	NaN	d	8	4	1.08747413762351	1.27914033631967	42.8127200189084	28.3236873757602	13.2665927948019	42.8345172613902	385.141853909663	2.31458487398049	1
389.392213985169	2.01606571950106	11	object_onset	2	stay	0.569209978830308	100	3	97	n/a	NaN	NaN	NaN	NaN	NaN	NaN	NaN	NaN	NaN	NaN	NaN
397.156882842102	2.0161111589332	5	object_onset	1	switch	1.20747670784989	71	3	68	n/a	NaN	NaN	NaN	NaN	NaN	NaN	NaN	NaN	NaN	NaN	NaN
402.105581722341	2.01614219854491	9	object_onset	1	stay	0.524785670536077	71	19	52	n/a	NaN	NaN	NaN	NaN	NaN	NaN	NaN	NaN	NaN	NaN	NaN
407.970685485845	3.03256407360095	9	choice	1	n/a	NaN	NaN	NaN	NaN	d	3	1	0.648999229583518	1.08747413762351	59.8748977484675	70.1156602958224	31.2285063350093	25.481413184806	410.98450803334	3.01382254749478	1
413.852474481118	2.01603403989611	3	object_onset	1	stay	0.648999229583518	11	50	-39	n/a	NaN	NaN	NaN	NaN	NaN	NaN	NaN	NaN	NaN	NaN	NaN
420.100823381725	2.01614699848506	6	object_onset	2	switch	0.458911756223351	13	44	-31	n/a	NaN	NaN	NaN	NaN	NaN	NaN	NaN	NaN	NaN	NaN	NaN
424.999544005692	2.01614283853633	12	object_onset	2	stay	0.648999229583518	72	18	54	n/a	NaN	NaN	NaN	NaN	NaN	NaN	NaN	NaN	NaN	NaN	NaN
429.264979413058	6.3318166589288	12	choice	2	n/a	NaN	NaN	NaN	NaN	d	9	2	0.814984662432368	0.458911756223351	56.1629049914503	53.3206308004961	12.9906848652376	52.9909262905921	435.577874068133	6.31289465507507	-1
440.195590519032	2.01613675861336	1	object_onset	1	switch	0.763675323681471	1	44	-43	n/a	NaN	NaN	NaN	NaN	NaN	NaN	NaN	NaN	NaN	NaN	NaN
445.61072677813	2.01625067719215	4	object_onset	2	switch	1.08747413762351	2	14	-12	n/a	NaN	NaN	NaN	NaN	NaN	NaN	NaN	NaN	NaN	NaN	NaN
451.959181629414	14.4295181596135	4	choice	2	n/a	NaN	NaN	NaN	NaN	d	5	8	0.524785670536077	1.26	0.93905438200614	14.4890326431482	56.8490675010205	29.5679244665883	466.368518600888	14.4093369714737	1
470.93749518006	2.01614763847829	5	object_onset	2	stay	0.524785670536077	3	71	-68	n/a	NaN	NaN	NaN	NaN	NaN	NaN	NaN	NaN	NaN	NaN	NaN
477.052590383673	2.01614987844914	6	object_onset	1	switch	0.36	44	13	31	n/a	NaN	NaN	NaN	NaN	NaN	NaN	NaN	NaN	NaN	NaN	NaN
483.717432326444	2.01618923795832	10	object_onset	1	stay	1.08747413762351	5	50	-45	n/a	NaN	NaN	NaN	NaN	NaN	NaN	NaN	NaN	NaN	NaN	NaN
491.315526302233	2.0161383585928	9	object_onset	1	stay	0.763675323681471	71	19	52	n/a	NaN	NaN	NaN	NaN	NaN	NaN	NaN	NaN	NaN	NaN	NaN
496.897400960437	2.01611115893138	5	object_onset	1	stay	0.524785670536077	71	3	68	n/a	NaN	NaN	NaN	NaN	NaN	NaN	NaN	NaN	NaN	NaN	NaN
502.529248114985	2.01613803859618	4	object_onset	2	switch	0.524785670536077	2	14	-12	n/a	NaN	NaN	NaN	NaN	NaN	NaN	NaN	NaN	NaN	NaN	NaN
507.411296627019	2.01600652023808	5	object_onset	1	switch	0.524785670536077	71	3	68	n/a	NaN	NaN	NaN	NaN	NaN	NaN	NaN	NaN	NaN	NaN	NaN
512.343344835057	7.24811754349321	5	choice	1	n/a	NaN	NaN	NaN	NaN	d	11	6	1.20747670784989	0.36	67.8652316736184	27.2811430344322	97.3878590146082	10.5872433333912	519.577228956183	7.23388412112581	-1
523.107226181817	2.01599820034244	5	object_onset	2	switch	0	3	71	-68	n/a	NaN	NaN	NaN	NaN	NaN	NaN	NaN	NaN	NaN	NaN	NaN
528.25579968762	2.01617611812253	1	object_onset	1	switch	1.26	1	44	-43	n/a	NaN	NaN	NaN	NaN	NaN	NaN	NaN	NaN	NaN	NaN	NaN
533.604439816592	2.01612779872448	10	object_onset	1	stay	1.08747413762351	5	50	-45	n/a	NaN	NaN	NaN	NaN	NaN	NaN	NaN	NaN	NaN	NaN	NaN
540.485928975608	2.01618027806944	3	object_onset	1	stay	0.9	11	50	-39	n/a	NaN	NaN	NaN	NaN	NaN	NaN	NaN	NaN	NaN	NaN	NaN
545.351331615382	2.01601804009442	7	object_onset	2	switch	1.08747413762351	2	90	-88	n/a	NaN	NaN	NaN	NaN	NaN	NaN	NaN	NaN	NaN	NaN	NaN
551.08315544222	2.01612875871433	6	object_onset	2	stay	0.763675323681471	13	44	-31	n/a	NaN	NaN	NaN	NaN	NaN	NaN	NaN	NaN	NaN	NaN	NaN
556.115083043764	6.53169576443725	6	choice	2	n/a	NaN	NaN	NaN	NaN	d	12	1	0.648999229583518	0.9	59.1256399192012	31.2864223035111	25.70978325616	42.8345172613902	562.639256342081	6.52417329831769	1
567.528825080264	2.0161889179617	8	object_onset	1	switch	0.814984662432368	44	16	28	n/a	NaN	NaN	NaN	NaN	NaN	NaN	NaN	NaN	NaN	NaN	NaN
573.827216556338	2.01602444001583	8	object_onset	1	stay	0	44	16	28	n/a	NaN	NaN	NaN	NaN	NaN	NaN	NaN	NaN	NaN	NaN	NaN
580.425456450304	2.01617483813789	11	object_onset	2	switch	0.853814968245462	100	3	97	n/a	NaN	NaN	NaN	NaN	NaN	NaN	NaN	NaN	NaN	NaN	NaN
587.123623097184	2.73272973553321	11	choice	2	n/a	NaN	NaN	NaN	NaN	d	2	5	0.853814968245462	1.20747670784989	83.8378807534661	97.3878590146082	1.88362051778864	67.8652316736184	589.846397756957	2.72277465977277	1
595.57151286752	2.01599628036638	9	object_onset	1	switch	0.814984662432368	71	19	52	n/a	NaN	NaN	NaN	NaN	NaN	NaN	NaN	NaN	NaN	NaN	NaN
600.786849700116	2.01598476051004	8	object_onset	2	switch	0.36	16	44	-28	n/a	NaN	NaN	NaN	NaN	NaN	NaN	NaN	NaN	NaN	NaN	NaN
607.118481721349	2.01614987844914	11	object_onset	1	switch	0.853814968245462	3	100	-97	n/a	NaN	NaN	NaN	NaN	NaN	NaN	NaN	NaN	NaN	NaN	NaN
611.833903832881	3.715709467946	11	choice	1	n/a	NaN	NaN	NaN	NaN	d	4	3	1.27914033631967	0.524785670536077	11.0161641725979	7.99033392515088	98.3269133966143	49.7671002275025	615.528517244105	3.69461341122405	-1
621.331435543685	2.01610155905291	9	object_onset	2	switch	0.814984662432368	19	71	-52	n/a	NaN	NaN	NaN	NaN	NaN	NaN	NaN	NaN	NaN	NaN	NaN
626.396734568752	2.01618027807126	2	object_onset	1	switch	0.9	5	16	-11	n/a	NaN	NaN	NaN	NaN	NaN	NaN	NaN	NaN	NaN	NaN	NaN
632.611801004725	2.01614731847985	10	object_onset	2	switch	1.26	50	5	45	n/a	NaN	NaN	NaN	NaN	NaN	NaN	NaN	NaN	NaN	NaN	NaN
638.060381006446	2.01612843871771	2	object_onset	1	switch	1.26	5	16	-11	n/a	NaN	NaN	NaN	NaN	NaN	NaN	NaN	NaN	NaN	NaN	NaN
643.925506209684	2.01613803859618	3	object_onset	2	switch	0.36	50	11	39	n/a	NaN	NaN	NaN	NaN	NaN	NaN	NaN	NaN	NaN	NaN	NaN
648.874211809838	2.01612555875181	3	object_onset	2	stay	0	50	11	39	n/a	NaN	NaN	NaN	NaN	NaN	NaN	NaN	NaN	NaN	NaN	NaN
655.422358568965	2.01615915833463	12	object_onset	2	stay	0.458911756223351	72	18	54	n/a	NaN	NaN	NaN	NaN	NaN	NaN	NaN	NaN	NaN	NaN	NaN
662.287322494216	2.01617451814127	9	object_onset	2	stay	0.458911756223351	19	71	-52	n/a	NaN	NaN	NaN	NaN	NaN	NaN	NaN	NaN	NaN	NaN	NaN
667.885920463714	2.01613227866801	12	object_onset	2	stay	0.458911756223351	72	18	54	n/a	NaN	NaN	NaN	NaN	NaN	NaN	NaN	NaN	NaN	NaN	NaN
672.934584816381	2.01608939920516	2	object_onset	2	stay	0.814984662432368	16	5	11	n/a	NaN	NaN	NaN	NaN	NaN	NaN	NaN	NaN	NaN	NaN	NaN
678.616381747557	2.01613611862012	10	object_onset	2	stay	1.26	50	5	45	n/a	NaN	NaN	NaN	NaN	NaN	NaN	NaN	NaN	NaN	NaN	NaN
685.53123241022	2.01616939820633	7	object_onset	1	switch	1.08747413762351	90	2	88	n/a	NaN	NaN	NaN	NaN	NaN	NaN	NaN	NaN	NaN	NaN	NaN
692.096165199859	2.01618155805409	8	object_onset	2	switch	0.524785670536077	16	44	-28	n/a	NaN	NaN	NaN	NaN	NaN	NaN	NaN	NaN	NaN	NaN	NaN
697.944673970469	19.728152832653	8	choice	2	n/a	NaN	NaN	NaN	NaN	d	12	11	0.524785670536077	0.853814968245462	56.1629049914503	83.8378807534661	25.7097832561599	40.5840886391862	717.652056822331	19.7073828518623	1
721.621760880425	2.01617515813268	10	object_onset	2	stay	0.569209978830308	50	5	45	n/a	NaN	NaN	NaN	NaN	NaN	NaN	NaN	NaN	NaN	NaN	NaN
728.020090949265	2.0161313186818	12	object_onset	1	switch	0.458911756223351	18	72	-54	n/a	NaN	NaN	NaN	NaN	NaN	NaN	NaN	NaN	NaN	NaN	NaN
734.751651099396	2.01613707860815	10	object_onset	1	stay	0.458911756223351	5	50	-45	n/a	NaN	NaN	NaN	NaN	NaN	NaN	NaN	NaN	NaN	NaN	NaN
739.617040299338	2.01613547862871	2	object_onset	1	stay	1.26	5	16	-11	n/a	NaN	NaN	NaN	NaN	NaN	NaN	NaN	NaN	NaN	NaN	NaN
744.799021388213	2.01617003819774	7	object_onset	2	switch	1.27914033631967	2	90	-88	n/a	NaN	NaN	NaN	NaN	NaN	NaN	NaN	NaN	NaN	NaN	NaN
749.797771163816	2.01611051894179	4	object_onset	2	stay	1.08747413762351	2	14	-12	n/a	NaN	NaN	NaN	NaN	NaN	NaN	NaN	NaN	NaN	NaN	NaN
755.379609982469	2.01614059856547	6	object_onset	1	switch	0.458911756223351	44	13	31	n/a	NaN	NaN	NaN	NaN	NaN	NaN	NaN	NaN	NaN	NaN	NaN
760.894835872448	2.01626603700061	6	object_onset	1	stay	0	44	13	31	n/a	NaN	NaN	NaN	NaN	NaN	NaN	NaN	NaN	NaN	NaN	NaN
765.976801569517	2.0161383585928	4	object_onset	1	stay	0.458911756223351	14	2	12	n/a	NaN	NaN	NaN	NaN	NaN	NaN	NaN	NaN	NaN	NaN	NaN
771.375382515227	2.01613451864068	11	object_onset	2	switch	1.27914033631967	100	3	97	n/a	NaN	NaN	NaN	NaN	NaN	NaN	NaN	NaN	NaN	NaN	NaN
777.690403223769	2.01613035869195	2	object_onset	2	stay	0.853814968245462	16	5	11	n/a	NaN	NaN	NaN	NaN	NaN	NaN	NaN	NaN	NaN	NaN	NaN
782.10590875826	6.7315620701047	2	choice	2	n/a	NaN	NaN	NaN	NaN	d	10	3	1.26	0.36	34.0707805259635	34.0707805259635	1.77635683940025e-15	6.10671340736224	788.832831846259	6.72692308799924	-1
793.669568603784	2.01609995907347	6	object_onset	2	stay	0.524785670536077	13	44	-31	n/a	NaN	NaN	NaN	NaN	NaN	NaN	NaN	NaN	NaN	NaN	NaN
798.784862844912	2.01616907820971	10	object_onset	2	stay	1.08747413762351	50	5	45	n/a	NaN	NaN	NaN	NaN	NaN	NaN	NaN	NaN	NaN	NaN	NaN
805.699599588997	2.01626571700399	8	object_onset	1	switch	0.569209978830308	44	16	28	n/a	NaN	NaN	NaN	NaN	NaN	NaN	NaN	NaN	NaN	NaN	NaN
812.997807067368	2.01605611962077	6	object_onset	2	switch	0.814984662432368	13	44	-31	n/a	NaN	NaN	NaN	NaN	NaN	NaN	NaN	NaN	NaN	NaN	NaN
818.196474028005	2.01611179892461	7	object_onset	2	stay	0.763675323681471	2	90	-88	n/a	NaN	NaN	NaN	NaN	NaN	NaN	NaN	NaN	NaN	NaN	NaN
822.911909899365	10.080676753154	7	choice	2	n/a	NaN	NaN	NaN	NaN	d	6	2	0.763675323681471	1.27914033631967	11.3101527179681	14.272887645719	46.7766790247836	85.4771471461812	832.98200406459	10.0700941652249	1
836.608239769168	2.01620363777874	7	object_onset	1	switch	0	90	2	88	n/a	NaN	NaN	NaN	NaN	NaN	NaN	NaN	NaN	NaN	NaN	NaN
841.823503322679	2.01621419764706	11	object_onset	1	stay	1.26	3	100	-97	n/a	NaN	NaN	NaN	NaN	NaN	NaN	NaN	NaN	NaN	NaN	NaN
847.272168763335	2.01614731848167	2	object_onset	2	switch	0.853814968245462	16	5	11	n/a	NaN	NaN	NaN	NaN	NaN	NaN	NaN	NaN	NaN	NaN	NaN
852.620775292726	2.0161485984645	8	object_onset	2	stay	1.20747670784989	16	44	-28	n/a	NaN	NaN	NaN	NaN	NaN	NaN	NaN	NaN	NaN	NaN	NaN
860.252074934106	2.01617483813789	12	object_onset	1	switch	0.524785670536077	18	72	-54	n/a	NaN	NaN	NaN	NaN	NaN	NaN	NaN	NaN	NaN	NaN	NaN
864.650966915933	58.9178723849527	12	choice	1	n/a	NaN	NaN	NaN	NaN	d	6	7	0.648999229583518	0.9	25.70978325616	72.4864622809436	59.1256399192012	70.4357926371693	923.548987388638	58.898020472705	1
926.618042206834	2.01614187855012	12	object_onset	1	stay	0	18	72	-54	n/a	NaN	NaN	NaN	NaN	NaN	NaN	NaN	NaN	NaN	NaN	NaN
932.199909505131	2.01613739860477	3	object_onset	1	stay	0.458911756223351	11	50	-39	n/a	NaN	NaN	NaN	NaN	NaN	NaN	NaN	NaN	NaN	NaN	NaN
936.715275553363	2.5827776869337	3	choice	1	n/a	NaN	NaN	NaN	NaN	d	1	5	0.458911756223351	0.814984662432368	10.2407625473549	59.8748977484675	5.74709315020333	47.6207587871056	939.278407405476	2.56313185211366	1
942.447453935776	2.01587436188674	9	object_onset	1	stay	0.648999229583518	71	19	52	n/a	NaN	NaN	NaN	NaN	NaN	NaN	NaN	NaN	NaN	NaN	NaN
950.111849164123	2.01612939870574	10	object_onset	1	stay	0.763675323681471	5	50	-45	n/a	NaN	NaN	NaN	NaN	NaN	NaN	NaN	NaN	NaN	NaN	NaN
957.459839381205	2.01620843771889	4	object_onset	1	stay	1.53792067415716	14	2	12	n/a	NaN	NaN	NaN	NaN	NaN	NaN	NaN	NaN	NaN	NaN	NaN
963.325084902941	2.01610539900503	2	object_onset	2	switch	0.569209978830308	16	5	11	n/a	NaN	NaN	NaN	NaN	NaN	NaN	NaN	NaN	NaN	NaN	NaN
970.206567022044	2.01618059806606	5	object_onset	2	stay	0.853814968245462	3	71	-68	n/a	NaN	NaN	NaN	NaN	NaN	NaN	NaN	NaN	NaN	NaN	NaN
976.538248642657	2.01613579862533	12	object_onset	2	stay	0.9	72	18	54	n/a	NaN	NaN	NaN	NaN	NaN	NaN	NaN	NaN	NaN	NaN	NaN
982.486695686039	2.01613259866463	11	object_onset	1	switch	0.36	3	100	-97	n/a	NaN	NaN	NaN	NaN	NaN	NaN	NaN	NaN	NaN	NaN	NaN
988.535137321487	2.01611499888531	11	object_onset	1	stay	0	3	100	-97	n/a	NaN	NaN	NaN	NaN	NaN	NaN	NaN	NaN	NaN	NaN	NaN
994.466894973151	2.01615307840984	4	object_onset	2	switch	1.27914033631967	2	14	-12	n/a	NaN	NaN	NaN	NaN	NaN	NaN	NaN	NaN	NaN	NaN	NaN
999.615535678115	2.0161348386373	8	object_onset	2	stay	1.26	16	44	-28	n/a	NaN	NaN	NaN	NaN	NaN	NaN	NaN	NaN	NaN	NaN	NaN
1005.04742884809	2.01614091856027	5	object_onset	2	stay	0.853814968245462	3	71	-68	n/a	NaN	NaN	NaN	NaN	NaN	NaN	NaN	NaN	NaN	NaN	NaN
1010.61253859552	2.01625963708102	5	object_onset	2	stay	0	3	71	-68	n/a	NaN	NaN	NaN	NaN	NaN	NaN	NaN	NaN	NaN	NaN	NaN
1016.22773059792	2.01627851684498	11	object_onset	2	stay	1.20747670784989	100	3	97	n/a	NaN	NaN	NaN	NaN	NaN	NaN	NaN	NaN	NaN	NaN	NaN
1023.89254758101	2.01613067868857	3	object_onset	2	stay	0.524785670536077	50	11	39	n/a	NaN	NaN	NaN	NaN	NaN	NaN	NaN	NaN	NaN	NaN	NaN
1029.45769636795	2.01618091806267	5	object_onset	2	stay	0.814984662432368	3	71	-68	n/a	NaN	NaN	NaN	NaN	NaN	NaN	NaN	NaN	NaN	NaN	NaN
1034.12317798274	10.5139116663831	5	choice	2	n/a	NaN	NaN	NaN	NaN	d	10	4	1.27914033631967	0.524785670536077	47.6207587871056	0.93905438200614	65.9816111558298	56.8490675010205	1044.62844879696	10.5052708142193	-1
1047.71947742092	2.0162797968278	11	object_onset	1	switch	1.20747670784989	3	100	-97	n/a	NaN	NaN	NaN	NaN	NaN	NaN	NaN	NaN	NaN	NaN	NaN
1053.93464625562	2.01613611862194	12	object_onset	1	stay	0.36	18	72	-54	n/a	NaN	NaN	NaN	NaN	NaN	NaN	NaN	NaN	NaN	NaN	NaN
1059.88309361899	2.01610155905291	12	object_onset	2	switch	0	72	18	54	n/a	NaN	NaN	NaN	NaN	NaN	NaN	NaN	NaN	NaN	NaN	NaN
1066.59797045733	2.01616491826098	6	object_onset	2	stay	0.648999229583518	13	44	-31	n/a	NaN	NaN	NaN	NaN	NaN	NaN	NaN	NaN	NaN	NaN	NaN
1074.31260281872	2.0161415585535	6	object_onset	1	switch	0	44	13	31	n/a	NaN	NaN	NaN	NaN	NaN	NaN	NaN	NaN	NaN	NaN	NaN
1079.54461880316	2.01612395877237	8	object_onset	1	stay	0.814984662432368	44	16	28	n/a	NaN	NaN	NaN	NaN	NaN	NaN	NaN	NaN	NaN	NaN	NaN
1084.97648509347	2.01613707860997	1	object_onset	1	stay	1.27914033631967	1	44	-43	n/a	NaN	NaN	NaN	NaN	NaN	NaN	NaN	NaN	NaN	NaN	NaN
1090.30844799057	2.01612971870054	1	object_onset	1	stay	0	1	44	-43	n/a	NaN	NaN	NaN	NaN	NaN	NaN	NaN	NaN	NaN	NaN	NaN
1097.2899522214	1.88283186225817	1	choice	1	n/a	NaN	NaN	NaN	NaN	d	4	9	1.08747413762351	1.08747413762351	13.2665927948019	70.1156602958224	42.8127200189084	25.481413184806	1099.16001080307	1.87005858166776	1
1102.8051361919	2.01616971820295	1	object_onset	2	switch	0	44	1	43	n/a	NaN	NaN	NaN	NaN	NaN	NaN	NaN	NaN	NaN	NaN	NaN
1110.30346021282	2.01584972219462	2	object_onset	1	switch	0.524785670536077	5	16	-11	n/a	NaN	NaN	NaN	NaN	NaN	NaN	NaN	NaN	NaN	NaN	NaN
1114.81867874289	20.761222499943	2	choice	1	n/a	NaN	NaN	NaN	NaN	d	8	10	1.20747670784989	1.26	38.7004681213976	1.77635683940025e-15	0	34.0707805259635	1135.57445683078	20.7557780878906	1
1140.47862346678	2.01611371890067	4	object_onset	1	stay	0.569209978830308	14	2	12	n/a	NaN	NaN	NaN	NaN	NaN	NaN	NaN	NaN	NaN	NaN	NaN
1145.77723702008	2.01613259866645	9	object_onset	2	switch	0.9	19	71	-52	n/a	NaN	NaN	NaN	NaN	NaN	NaN	NaN	NaN	NaN	NaN	NaN
1150.64262558003	3.04920002598374	9	choice	2	n/a	NaN	NaN	NaN	NaN	d	11	10	0.763675323681471	0.814984662432368	31.2285063350093	80.9956065625119	65.9816111558297	67.8652316736184	1153.67325207782	3.03062649778258	1
1156.67461654079	2.01583020243925	5	object_onset	1	switch	0.524785670536077	71	3	68	n/a	NaN	NaN	NaN	NaN	NaN	NaN	NaN	NaN	NaN	NaN	NaN
1162.37285742674	2.01612523875701	10	object_onset	1	stay	1.27914033631967	5	50	-45	n/a	NaN	NaN	NaN	NaN	NaN	NaN	NaN	NaN	NaN	NaN	NaN
1167.40486278731	2.0161348386373	12	object_onset	2	switch	0.458911756223351	72	18	54	n/a	NaN	NaN	NaN	NaN	NaN	NaN	NaN	NaN	NaN	NaN	NaN
1173.02006310961	2.01616523825942	7	object_onset	1	switch	0.9	90	2	88	n/a	NaN	NaN	NaN	NaN	NaN	NaN	NaN	NaN	NaN	NaN	NaN
1178.13538615038	2.01612683873645	11	object_onset	2	switch	1.26	100	3	97	n/a	NaN	NaN	NaN	NaN	NaN	NaN	NaN	NaN	NaN	NaN	NaN
1183.25074375072	2.01613419864407	11	object_onset	2	stay	0	100	3	97	n/a	NaN	NaN	NaN	NaN	NaN	NaN	NaN	NaN	NaN	NaN	NaN
1189.46573882758	2.01615179842702	8	object_onset	1	switch	0.853814968245462	44	16	28	n/a	NaN	NaN	NaN	NaN	NaN	NaN	NaN	NaN	NaN	NaN	NaN
1195.09748934333	6.89833982871824	8	choice	1	n/a	NaN	NaN	NaN	NaN	d	5	7	0.853814968245462	0.524785670536077	27.2811430344322	46.7766790247836	13.5499782611421	14.272887645719	1201.99024652172	6.89275717838973	-1
1207.11111669326	2.0161687582131	2	object_onset	2	switch	1.20747670784989	16	5	11	n/a	NaN	NaN	NaN	NaN	NaN	NaN	NaN	NaN	NaN	NaN	NaN
1212.8762741841	2.01613643861856	4	object_onset	2	stay	0.569209978830308	2	14	-12	n/a	NaN	NaN	NaN	NaN	NaN	NaN	NaN	NaN	NaN	NaN	NaN
1220.37430380869	2.01616619824563	4	object_onset	1	switch	0	14	2	12	n/a	NaN	NaN	NaN	NaN	NaN	NaN	NaN	NaN	NaN	NaN	NaN
1225.08975727983	166.989533250626	4	choice	1	n/a	NaN	NaN	NaN	NaN	d	7	8	1.08747413762351	1.26	76.3446034913719	29.5679244665883	0.216144997429269	14.4890326431482	1392.05968053519	166.969923255358	1
1396.82794486725	2.01622123755806	3	object_onset	1	stay	0.763675323681471	11	50	-39	n/a	NaN	NaN	NaN	NaN	NaN	NaN	NaN	NaN	NaN	NaN	NaN
