onset	duration	object	trial_type	map	stayswitch	distance	value	counterfactual_value	value_diff	choicetype	object1	object2	chosen_distance	unchosen_distance	chosen_value	unchosen_value	counterfactual_chosen_value	counterfactual_unchosen_value	button	response_time	cr
8.77287757024169	2.01627608179115	4	object_onset	1	n/a	NaN	NaN	NaN	NaN	n/a	NaN	NaN	NaN	NaN	NaN	NaN	NaN	NaN	NaN	NaN	NaN
14.5382102166768	2.01614264235832	3	object_onset	2	switch	0.763675323681471	50	11	39	n/a	NaN	NaN	NaN	NaN	NaN	NaN	NaN	NaN	NaN	NaN	NaN
19.5535586229526	2.0161439224612	7	object_onset	1	switch	1.08747413762351	90	2	88	n/a	NaN	NaN	NaN	NaN	NaN	NaN	NaN	NaN	NaN	NaN	NaN
25.0187208701391	2.01615032250993	3	object_onset	2	switch	1.08747413762351	50	11	39	n/a	NaN	NaN	NaN	NaN	NaN	NaN	NaN	NaN	NaN	NaN	NaN
32.8335195190739	2.01613432262093	9	object_onset	2	stay	0.648999229583518	19	71	-52	n/a	NaN	NaN	NaN	NaN	NaN	NaN	NaN	NaN	NaN	NaN	NaN
38.7653310464229	2.01614616252482	6	object_onset	1	switch	0.458911756223351	44	13	31	n/a	NaN	NaN	NaN	NaN	NaN	NaN	NaN	NaN	NaN	NaN	NaN
44.4305428934749	2.01616568234749	7	object_onset	2	switch	0.763675323681471	2	90	-88	n/a	NaN	NaN	NaN	NaN	NaN	NaN	NaN	NaN	NaN	NaN	NaN
51.1620619420428	48.5710737388581	7	choice	2	n/a	NaN	NaN	NaN	NaN	d	6	8	0.763675323681471	0.524785670536077	11.3101527179681	14.272887645719	46.7766790247836	46.7766790247836	99.7276000275742	48.5655380855314	-1
103.148942325031	2.01615576259792	8	object_onset	2	stay	0.524785670536077	16	44	-28	n/a	NaN	NaN	NaN	NaN	NaN	NaN	NaN	NaN	NaN	NaN	NaN
109.214091772446	2.01615128247067	3	object_onset	1	switch	0.9	11	50	-39	n/a	NaN	NaN	NaN	NaN	NaN	NaN	NaN	NaN	NaN	NaN	NaN
115.312539939769	2.01616184250452	1	object_onset	1	stay	0.458911756223351	1	44	-43	n/a	NaN	NaN	NaN	NaN	NaN	NaN	NaN	NaN	NaN	NaN	NaN
121.09438194707	2.01613688236102	3	object_onset	1	stay	0.458911756223351	11	50	-39	n/a	NaN	NaN	NaN	NaN	NaN	NaN	NaN	NaN	NaN	NaN	NaN
127.64271467505	2.01618296233937	3	object_onset	2	switch	0	50	11	39	n/a	NaN	NaN	NaN	NaN	NaN	NaN	NaN	NaN	NaN	NaN	NaN
134.341062682914	2.01613048254512	7	object_onset	2	stay	1.08747413762351	2	90	-88	n/a	NaN	NaN	NaN	NaN	NaN	NaN	NaN	NaN	NaN	NaN	NaN
139.206512608798	2.01608376274817	10	object_onset	2	stay	1.08747413762351	50	5	45	n/a	NaN	NaN	NaN	NaN	NaN	NaN	NaN	NaN	NaN	NaN	NaN
146.521274617873	2.01612088270485	4	object_onset	1	switch	1.53792067415716	14	2	12	n/a	NaN	NaN	NaN	NaN	NaN	NaN	NaN	NaN	NaN	NaN	NaN
151.786556544481	8.3979209701065	4	choice	1	n/a	NaN	NaN	NaN	NaN	d	3	10	0.763675323681471	1.53792067415716	3.02583024744705	9.13254365480929	48.5598131691118	48.5598131691118	160.176838191226	8.39028164674528	1
163.133703358239	2.01612760266289	1	object_onset	2	switch	1.08747413762351	44	1	43	n/a	NaN	NaN	NaN	NaN	NaN	NaN	NaN	NaN	NaN	NaN	NaN
168.732155845733	2.01624632207677	8	object_onset	1	switch	1.27914033631967	44	16	28	n/a	NaN	NaN	NaN	NaN	NaN	NaN	NaN	NaN	NaN	NaN	NaN
175.447236253181	2.01614808267914	11	object_onset	1	stay	0.853814968245462	3	100	-97	n/a	NaN	NaN	NaN	NaN	NaN	NaN	NaN	NaN	NaN	NaN	NaN
182.362148021813	2.01614872249775	10	object_onset	2	switch	0.524785670536077	50	5	45	n/a	NaN	NaN	NaN	NaN	NaN	NaN	NaN	NaN	NaN	NaN	NaN
190.143519631121	2.01612888253294	9	object_onset	2	stay	0.763675323681471	19	71	-52	n/a	NaN	NaN	NaN	NaN	NaN	NaN	NaN	NaN	NaN	NaN	NaN
194.525635236874	27.3264502731618	9	choice	2	n/a	NaN	NaN	NaN	NaN	d	11	4	0.814984662432368	0.9	80.9956065625119	17.3313068341025	67.8652316736184	56.8490675010204	221.845105383545	27.3194701466709	1
226.200986875221	2.01612088270485	9	object_onset	1	switch	0	71	19	52	n/a	NaN	NaN	NaN	NaN	NaN	NaN	NaN	NaN	NaN	NaN	NaN
230.699811040889	22.4609347474761	9	choice	1	n/a	NaN	NaN	NaN	NaN	d	2	10	0.763675323681471	0.9	65.9816111558297	65.9816111558297	31.2285063350093	2.84227419095423	253.151357353432	22.4515463125426	1
257.492988353595	2.01617752248421	1	object_onset	2	switch	1.08747413762351	44	1	43	n/a	NaN	NaN	NaN	NaN	NaN	NaN	NaN	NaN	NaN	NaN	NaN
262.858204200631	2.0162274420727	2	object_onset	2	stay	0.524785670536077	16	5	11	n/a	NaN	NaN	NaN	NaN	NaN	NaN	NaN	NaN	NaN	NaN	NaN
267.857020526426	2.01614008238539	9	object_onset	2	stay	0.9	19	71	-52	n/a	NaN	NaN	NaN	NaN	NaN	NaN	NaN	NaN	NaN	NaN	NaN
273.288988692919	2.01605112291873	4	object_onset	2	stay	0.9	2	14	-12	n/a	NaN	NaN	NaN	NaN	NaN	NaN	NaN	NaN	NaN	NaN	NaN
280.220537181478	2.0161794424057	1	object_onset	2	stay	1.08747413762351	44	1	43	n/a	NaN	NaN	NaN	NaN	NaN	NaN	NaN	NaN	NaN	NaN	NaN
285.519193667918	2.01617688243277	7	object_onset	1	switch	1.53792067415716	90	2	88	n/a	NaN	NaN	NaN	NaN	NaN	NaN	NaN	NaN	NaN	NaN	NaN
290.617919273907	56.4856229491998	7	choice	1	n/a	NaN	NaN	NaN	NaN	d	5	12	0.569209978830308	0.9	19.4955359903515	72.4864622809436	0.72290938457687	70.4357926371693	347.082912882091	56.4649936081842	1
350.969201747794	2.01613976270892	10	object_onset	1	stay	1.08747413762351	5	50	-45	n/a	NaN	NaN	NaN	NaN	NaN	NaN	NaN	NaN	NaN	NaN	NaN
358.100702876691	2.01616248232313	12	object_onset	1	stay	0.458911756223351	18	72	-54	n/a	NaN	NaN	NaN	NaN	NaN	NaN	NaN	NaN	NaN	NaN	NaN
365.83210736583	2.01611192268319	8	object_onset	2	switch	0.524785670536077	16	44	-28	n/a	NaN	NaN	NaN	NaN	NaN	NaN	NaN	NaN	NaN	NaN	NaN
373.180240414804	2.01615480263717	1	object_onset	1	switch	1.27914033631967	1	44	-43	n/a	NaN	NaN	NaN	NaN	NaN	NaN	NaN	NaN	NaN	NaN	NaN
380.461718103848	2.01611640257761	2	object_onset	1	stay	0.524785670536077	5	16	-11	n/a	NaN	NaN	NaN	NaN	NaN	NaN	NaN	NaN	NaN	NaN	NaN
387.209960272303	2.0161916022189	9	object_onset	1	stay	0.9	71	19	52	n/a	NaN	NaN	NaN	NaN	NaN	NaN	NaN	NaN	NaN	NaN	NaN
392.958498759195	2.01615576259792	6	object_onset	2	switch	0.458911756223351	13	44	-31	n/a	NaN	NaN	NaN	NaN	NaN	NaN	NaN	NaN	NaN	NaN	NaN
399.49008372752	2.01626424212009	1	object_onset	2	stay	0.9	44	1	43	n/a	NaN	NaN	NaN	NaN	NaN	NaN	NaN	NaN	NaN	NaN	NaN
405.388674934395	2.01616664230824	5	object_onset	1	switch	1.26	71	3	68	n/a	NaN	NaN	NaN	NaN	NaN	NaN	NaN	NaN	NaN	NaN	NaN
411.420490461634	2.01613688259386	7	object_onset	1	stay	0.569209978830308	90	2	88	n/a	NaN	NaN	NaN	NaN	NaN	NaN	NaN	NaN	NaN	NaN	NaN
416.802327988902	2.01625816198066	5	object_onset	1	stay	0.569209978830308	71	3	68	n/a	NaN	NaN	NaN	NaN	NaN	NaN	NaN	NaN	NaN	NaN	NaN
424.567137437873	2.01614584238268	2	object_onset	1	stay	0.853814968245462	5	16	-11	n/a	NaN	NaN	NaN	NaN	NaN	NaN	NaN	NaN	NaN	NaN	NaN
432.1319168068	2.01613144250587	12	object_onset	1	stay	0.814984662432368	18	72	-54	n/a	NaN	NaN	NaN	NaN	NaN	NaN	NaN	NaN	NaN	NaN	NaN
438.89681681525	2.01617624238133	7	object_onset	2	switch	0.9	2	90	-88	n/a	NaN	NaN	NaN	NaN	NaN	NaN	NaN	NaN	NaN	NaN	NaN
445.311871143058	2.01616792241111	6	object_onset	1	switch	0.763675323681471	44	13	31	n/a	NaN	NaN	NaN	NaN	NaN	NaN	NaN	NaN	NaN	NaN	NaN
451.560284670675	2.01615896238945	1	object_onset	2	switch	0.9	44	1	43	n/a	NaN	NaN	NaN	NaN	NaN	NaN	NaN	NaN	NaN	NaN	NaN
456.625629957067	2.01609784271568	11	object_onset	2	stay	0.569209978830308	100	3	97	n/a	NaN	NaN	NaN	NaN	NaN	NaN	NaN	NaN	NaN	NaN	NaN
462.407521243906	2.0160104832612	5	object_onset	1	switch	1.20747670784989	71	3	68	n/a	NaN	NaN	NaN	NaN	NaN	NaN	NaN	NaN	NaN	NaN	NaN
468.072743330849	2.01615736237727	9	object_onset	1	stay	0.524785670536077	71	19	52	n/a	NaN	NaN	NaN	NaN	NaN	NaN	NaN	NaN	NaN	NaN	NaN
475.387545339763	2.01615224243142	3	object_onset	1	stay	0.648999229583518	11	50	-39	n/a	NaN	NaN	NaN	NaN	NaN	NaN	NaN	NaN	NaN	NaN	NaN
481.186072386801	2.0161573626101	6	object_onset	2	switch	0.458911756223351	13	44	-31	n/a	NaN	NaN	NaN	NaN	NaN	NaN	NaN	NaN	NaN	NaN	NaN
487.417673195247	2.01630456163548	12	object_onset	2	stay	0.648999229583518	72	18	54	n/a	NaN	NaN	NaN	NaN	NaN	NaN	NaN	NaN	NaN	NaN	NaN
493.849522642326	2.01614680257626	1	object_onset	1	switch	0.763675323681471	1	44	-43	n/a	NaN	NaN	NaN	NaN	NaN	NaN	NaN	NaN	NaN	NaN	NaN
500.081232250202	25.3768714708276	1	choice	1	n/a	NaN	NaN	NaN	NaN	d	2	8	1.27914033631967	0.524785670536077	42.8345172613902	4.13404913999263	28.3236873757602	28.3236873757602	525.449859920656	25.3686276704539	-1
528.574029884767	2.01610136264935	4	object_onset	2	switch	1.08747413762351	2	14	-12	n/a	NaN	NaN	NaN	NaN	NaN	NaN	NaN	NaN	NaN	NaN	NaN
533.522756210761	2.01615448249504	5	object_onset	2	stay	0.524785670536077	3	71	-68	n/a	NaN	NaN	NaN	NaN	NaN	NaN	NaN	NaN	NaN	NaN	NaN
538.471485416871	2.01613528258167	6	object_onset	1	switch	0.36	44	13	31	n/a	NaN	NaN	NaN	NaN	NaN	NaN	NaN	NaN	NaN	NaN	NaN
545.103104145033	2.01615320262499	10	object_onset	1	stay	1.08747413762351	5	50	-45	n/a	NaN	NaN	NaN	NaN	NaN	NaN	NaN	NaN	NaN	NaN	NaN
550.285120231565	2.0161541623529	9	object_onset	1	stay	0.763675323681471	71	19	52	n/a	NaN	NaN	NaN	NaN	NaN	NaN	NaN	NaN	NaN	NaN	NaN
555.583762638038	2.01608568266965	5	object_onset	1	stay	0.524785670536077	71	3	68	n/a	NaN	NaN	NaN	NaN	NaN	NaN	NaN	NaN	NaN	NaN	NaN
561.232340324903	2.0161762421485	4	object_onset	2	switch	0.524785670536077	2	14	-12	n/a	NaN	NaN	NaN	NaN	NaN	NaN	NaN	NaN	NaN	NaN	NaN
568.530502093723	2.01613656245172	5	object_onset	1	switch	0.524785670536077	71	3	68	n/a	NaN	NaN	NaN	NaN	NaN	NaN	NaN	NaN	NaN	NaN	NaN
574.478875781409	2.01624184194952	5	object_onset	2	switch	0	3	71	-68	n/a	NaN	NaN	NaN	NaN	NaN	NaN	NaN	NaN	NaN	NaN	NaN
579.510937707499	4.43228112510405	5	choice	2	n/a	NaN	NaN	NaN	NaN	d	8	4	0.524785670536077	0.853814968245462	0.93905438200614	13.5499782611421	56.8490675010205	27.2811430344322	583.932772482745	4.42183477524668	1
587.94222907722	2.01614936254919	1	object_onset	1	switch	1.26	1	44	-43	n/a	NaN	NaN	NaN	NaN	NaN	NaN	NaN	NaN	NaN	NaN	NaN
595.623619086575	2.01614392269403	10	object_onset	1	stay	1.08747413762351	5	50	-45	n/a	NaN	NaN	NaN	NaN	NaN	NaN	NaN	NaN	NaN	NaN	NaN
601.122174453689	2.01604344299994	3	object_onset	1	stay	0.9	11	50	-39	n/a	NaN	NaN	NaN	NaN	NaN	NaN	NaN	NaN	NaN	NaN	NaN
608.703571022954	2.01620024209842	7	object_onset	2	switch	1.08747413762351	2	90	-88	n/a	NaN	NaN	NaN	NaN	NaN	NaN	NaN	NaN	NaN	NaN	NaN
614.452150789788	2.01615224243142	6	object_onset	2	stay	0.763675323681471	13	44	-31	n/a	NaN	NaN	NaN	NaN	NaN	NaN	NaN	NaN	NaN	NaN	NaN
619.400895035826	17.0456813806668	6	choice	2	n/a	NaN	NaN	NaN	NaN	d	4	3	0.458911756223351	0.458911756223351	11.5262977153973	37.0335154537144	29.5679244665883	32.5937547140354	636.431735527702	17.030840491876	1
640.878717382206	2.01608376274817	8	object_onset	1	switch	0.814984662432368	44	16	28	n/a	NaN	NaN	NaN	NaN	NaN	NaN	NaN	NaN	NaN	NaN	NaN
647.693685310427	2.01616408233531	8	object_onset	1	stay	0	44	16	28	n/a	NaN	NaN	NaN	NaN	NaN	NaN	NaN	NaN	NaN	NaN	NaN
654.292002758477	2.01612760243006	11	object_onset	2	switch	0.853814968245462	100	3	97	n/a	NaN	NaN	NaN	NaN	NaN	NaN	NaN	NaN	NaN	NaN	NaN
662.073365727905	2.01615160237998	9	object_onset	1	switch	0.814984662432368	71	19	52	n/a	NaN	NaN	NaN	NaN	NaN	NaN	NaN	NaN	NaN	NaN	NaN
668.921584056458	2.0161442423705	8	object_onset	2	switch	0.36	16	44	-28	n/a	NaN	NaN	NaN	NaN	NaN	NaN	NaN	NaN	NaN	NaN	NaN
675.286651424132	17.112285861047	8	choice	2	n/a	NaN	NaN	NaN	NaN	d	1	12	0.524785670536077	1.27914033631967	56.1629049914503	28.3236873757602	25.7097832561599	42.8345172613902	692.390928043518	17.1042766193859	1
696.331285449909	2.01613720250316	11	object_onset	1	switch	0.853814968245462	3	100	-97	n/a	NaN	NaN	NaN	NaN	NaN	NaN	NaN	NaN	NaN	NaN	NaN
702.479744577315	2.01613464253023	9	object_onset	2	switch	0.814984662432368	19	71	-52	n/a	NaN	NaN	NaN	NaN	NaN	NaN	NaN	NaN	NaN	NaN	NaN
708.444853544701	2.01619352237321	2	object_onset	1	switch	0.9	5	16	-11	n/a	NaN	NaN	NaN	NaN	NaN	NaN	NaN	NaN	NaN	NaN	NaN
714.659976352239	24.9769697105512	2	choice	1	n/a	NaN	NaN	NaN	NaN	d	5	7	0.853814968245462	1.27914033631967	65.9816111558298	85.4771471461812	13.5499782611421	14.272887645719	739.622999249725	24.9630228974856	1
742.769461586606	2.01614904240705	10	object_onset	2	switch	1.26	50	5	45	n/a	NaN	NaN	NaN	NaN	NaN	NaN	NaN	NaN	NaN	NaN	NaN
748.018151912838	2.01615544245578	2	object_onset	1	switch	1.26	5	16	-11	n/a	NaN	NaN	NaN	NaN	NaN	NaN	NaN	NaN	NaN	NaN	NaN
754.916369681479	2.01614680257626	3	object_onset	2	switch	0.36	50	11	39	n/a	NaN	NaN	NaN	NaN	NaN	NaN	NaN	NaN	NaN	NaN	NaN
760.2983588879	27.2430602733511	3	choice	2	n/a	NaN	NaN	NaN	NaN	d	1	11	0.524785670536077	0.458911756223351	49.7671002275025	5.74709315020333	7.99033392515088	10.2407625473549	787.529426578665	27.2310676907655	-1
792.240221247077	2.01615640241653	3	object_onset	2	stay	0	50	11	39	n/a	NaN	NaN	NaN	NaN	NaN	NaN	NaN	NaN	NaN	NaN	NaN
799.405071015703	2.01609528274275	12	object_onset	2	stay	0.458911756223351	72	18	54	n/a	NaN	NaN	NaN	NaN	NaN	NaN	NaN	NaN	NaN	NaN	NaN
804.337111342	2.01619352214038	9	object_onset	2	stay	0.458911756223351	19	71	-52	n/a	NaN	NaN	NaN	NaN	NaN	NaN	NaN	NaN	NaN	NaN	NaN
809.902392468648	2.01616696221754	12	object_onset	2	stay	0.458911756223351	72	18	54	n/a	NaN	NaN	NaN	NaN	NaN	NaN	NaN	NaN	NaN	NaN	NaN
814.784485834418	2.01615000260063	2	object_onset	2	stay	0.814984662432368	16	5	11	n/a	NaN	NaN	NaN	NaN	NaN	NaN	NaN	NaN	NaN	NaN	NaN
819.799836800899	25.2935976306908	2	choice	2	n/a	NaN	NaN	NaN	NaN	d	10	1	1.26	0.524785670536077	34.0707805259635	28.3236873757602	1.77635683940025e-15	4.13404913999263	845.082204405451	25.2823676045518	-1
849.492315716809	2.01618264243007	10	object_onset	2	stay	1.26	50	5	45	n/a	NaN	NaN	NaN	NaN	NaN	NaN	NaN	NaN	NaN	NaN	NaN
855.374199803919	2.01607960276306	7	object_onset	1	switch	1.08747413762351	90	2	88	n/a	NaN	NaN	NaN	NaN	NaN	NaN	NaN	NaN	NaN	NaN	NaN
860.222898130072	2.01602872321382	8	object_onset	2	switch	0.524785670536077	16	44	-28	n/a	NaN	NaN	NaN	NaN	NaN	NaN	NaN	NaN	NaN	NaN	NaN
865.721490936819	2.0161416826304	10	object_onset	2	stay	0.569209978830308	50	5	45	n/a	NaN	NaN	NaN	NaN	NaN	NaN	NaN	NaN	NaN	NaN	NaN
873.169627345866	2.01612696261145	12	object_onset	1	switch	0.458911756223351	18	72	-54	n/a	NaN	NaN	NaN	NaN	NaN	NaN	NaN	NaN	NaN	NaN	NaN
880.017737514805	2.0161893623881	10	object_onset	1	stay	0.458911756223351	5	50	-45	n/a	NaN	NaN	NaN	NaN	NaN	NaN	NaN	NaN	NaN	NaN	NaN
884.966598240426	2.01607576268725	2	object_onset	1	stay	1.26	5	16	-11	n/a	NaN	NaN	NaN	NaN	NaN	NaN	NaN	NaN	NaN	NaN	NaN
890.431779047474	2.01627768180333	7	object_onset	2	switch	1.27914033631967	2	90	-88	n/a	NaN	NaN	NaN	NaN	NaN	NaN	NaN	NaN	NaN	NaN	NaN
895.630575853167	2.01615416258574	4	object_onset	2	stay	1.08747413762351	2	14	-12	n/a	NaN	NaN	NaN	NaN	NaN	NaN	NaN	NaN	NaN	NaN	NaN
900.462672339287	24.3437845897861	4	choice	2	n/a	NaN	NaN	NaN	NaN	d	12	9	0.9	1.08747413762351	17.3313068341025	70.6519376345985	56.8490675010204	3.85814121042835	924.78573158849	24.3230592492037	1
928.788826613687	2.01613752241246	6	object_onset	1	switch	0.458911756223351	44	13	31	n/a	NaN	NaN	NaN	NaN	NaN	NaN	NaN	NaN	NaN	NaN	NaN
935.153840221697	2.01615192228928	6	object_onset	1	stay	0	44	13	31	n/a	NaN	NaN	NaN	NaN	NaN	NaN	NaN	NaN	NaN	NaN	NaN
942.235379350139	2.01612280262634	4	object_onset	1	stay	0.458911756223351	14	2	12	n/a	NaN	NaN	NaN	NaN	NaN	NaN	NaN	NaN	NaN	NaN	NaN
948.883700398263	2.01613304251805	11	object_onset	2	switch	1.27914033631967	100	3	97	n/a	NaN	NaN	NaN	NaN	NaN	NaN	NaN	NaN	NaN	NaN	NaN
954.648888725322	2.0161439224612	2	object_onset	2	stay	0.853814968245462	16	5	11	n/a	NaN	NaN	NaN	NaN	NaN	NaN	NaN	NaN	NaN	NaN	NaN
960.547271293122	2.01615192252211	6	object_onset	2	stay	0.524785670536077	13	44	-31	n/a	NaN	NaN	NaN	NaN	NaN	NaN	NaN	NaN	NaN	NaN	NaN
965.396109778667	2.01615576259792	10	object_onset	2	stay	1.08747413762351	50	5	45	n/a	NaN	NaN	NaN	NaN	NaN	NaN	NaN	NaN	NaN	NaN	NaN
971.661225306103	15.6293153793085	10	choice	2	n/a	NaN	NaN	NaN	NaN	d	7	2	1.26	1.08747413762351	34.0707805259635	48.3436681716825	1.77635683940025e-15	85.4771471461812	987.27412412432	15.6128988182172	-1
990.256460529054	2.01614712248556	8	object_onset	1	switch	0.569209978830308	44	16	28	n/a	NaN	NaN	NaN	NaN	NaN	NaN	NaN	NaN	NaN	NaN	NaN
997.054750137264	10.1141005721875	8	choice	1	n/a	NaN	NaN	NaN	NaN	d	10	1	0.569209978830308	1.27914033631967	38.7004681213976	42.8345172613902	34.0707805259635	28.3236873757602	1007.15587061178	10.1011204745155	1
1011.1511371946	2.01607384276576	6	object_onset	2	switch	0.814984662432368	13	44	-31	n/a	NaN	NaN	NaN	NaN	NaN	NaN	NaN	NaN	NaN	NaN	NaN
1016.38314440101	2.01617528218776	7	object_onset	2	stay	0.763675323681471	2	90	-88	n/a	NaN	NaN	NaN	NaN	NaN	NaN	NaN	NaN	NaN	NaN	NaN
1021.59839200764	2.01627896190621	7	object_onset	1	switch	0	90	2	88	n/a	NaN	NaN	NaN	NaN	NaN	NaN	NaN	NaN	NaN	NaN	NaN
1026.76383025362	2.01607576292008	11	object_onset	1	stay	1.26	3	100	-97	n/a	NaN	NaN	NaN	NaN	NaN	NaN	NaN	NaN	NaN	NaN	NaN
1033.94533882244	2.0160485629458	2	object_onset	2	switch	0.853814968245462	16	5	11	n/a	NaN	NaN	NaN	NaN	NaN	NaN	NaN	NaN	NaN	NaN	NaN
1038.92728482909	2.01618904224597	8	object_onset	2	stay	1.20747670784989	16	44	-28	n/a	NaN	NaN	NaN	NaN	NaN	NaN	NaN	NaN	NaN	NaN	NaN
1045.32577699632	2.01617656229064	12	object_onset	1	switch	0.524785670536077	18	72	-54	n/a	NaN	NaN	NaN	NaN	NaN	NaN	NaN	NaN	NaN	NaN	NaN
1050.37451564241	2.01612760243006	12	object_onset	1	stay	0	18	72	-54	n/a	NaN	NaN	NaN	NaN	NaN	NaN	NaN	NaN	NaN	NaN	NaN
1054.65664740815	12.6135272949468	12	choice	1	n/a	NaN	NaN	NaN	NaN	d	7	6	0.648999229583518	0.9	25.70978325616	72.4864622809436	59.1256399192012	70.4357926371693	1067.26006723172	12.603419823572	1
1071.48581142817	2.01614936254919	3	object_onset	1	stay	0.458911756223351	11	50	-39	n/a	NaN	NaN	NaN	NaN	NaN	NaN	NaN	NaN	NaN	NaN	NaN
1076.43451375444	10.9305638531223	3	choice	1	n/a	NaN	NaN	NaN	NaN	d	11	6	0.458911756223351	0.524785670536077	32.5937547140354	7.99033392515088	37.0335154537144	49.7671002275025	1087.34907128452	10.914557530079	1
1091.03085137205	2.01613784232177	9	object_onset	1	stay	0.648999229583518	71	19	52	n/a	NaN	NaN	NaN	NaN	NaN	NaN	NaN	NaN	NaN	NaN	NaN
1096.57941385894	2.01615576236509	10	object_onset	1	stay	0.763675323681471	5	50	-45	n/a	NaN	NaN	NaN	NaN	NaN	NaN	NaN	NaN	NaN	NaN	NaN
1102.76113010664	2.01606584293768	4	object_onset	1	stay	1.53792067415716	14	2	12	n/a	NaN	NaN	NaN	NaN	NaN	NaN	NaN	NaN	NaN	NaN	NaN
1110.15918867593	2.01626200182363	2	object_onset	2	switch	0.569209978830308	16	5	11	n/a	NaN	NaN	NaN	NaN	NaN	NaN	NaN	NaN	NaN	NaN	NaN
1116.32439620304	2.0160069630947	5	object_onset	2	stay	0.853814968245462	3	71	-68	n/a	NaN	NaN	NaN	NaN	NaN	NaN	NaN	NaN	NaN	NaN	NaN
1121.72301348951	2.01603896310553	12	object_onset	2	stay	0.9	72	18	54	n/a	NaN	NaN	NaN	NaN	NaN	NaN	NaN	NaN	NaN	NaN	NaN
1126.93836573581	24.4937633899972	12	choice	2	n/a	NaN	NaN	NaN	NaN	d	9	11	0.458911756223351	0.36	53.3206308004961	27.6749757620158	52.9909262905921	14.8743053830263	1151.4238280456	24.4854623097926	-1
1154.84789929003	2.01617720234208	11	object_onset	1	switch	0.36	3	100	-97	n/a	NaN	NaN	NaN	NaN	NaN	NaN	NaN	NaN	NaN	NaN	NaN
1160.76305489731	2.01615960244089	11	object_onset	1	stay	0	3	100	-97	n/a	NaN	NaN	NaN	NaN	NaN	NaN	NaN	NaN	NaN	NaN	NaN
1165.14525978267	9.16437233122997	11	choice	1	n/a	NaN	NaN	NaN	NaN	d	12	5	0.36	1.20747670784989	14.8743053830263	67.8652316736184	27.6749757620158	97.3878590146082	1174.29128212179	9.14602233911864	1
1177.49207123811	2.01622584206052	4	object_onset	2	switch	1.27914033631967	2	14	-12	n/a	NaN	NaN	NaN	NaN	NaN	NaN	NaN	NaN	NaN	NaN	NaN
1182.70749164396	2.01602104329504	8	object_onset	2	stay	1.26	16	44	-28	n/a	NaN	NaN	NaN	NaN	NaN	NaN	NaN	NaN	NaN	NaN	NaN
1187.92281765048	2.01617304235697	5	object_onset	2	stay	0.853814968245462	3	71	-68	n/a	NaN	NaN	NaN	NaN	NaN	NaN	NaN	NaN	NaN	NaN	NaN
1195.7540629406	2.01624472206458	5	object_onset	2	stay	0	3	71	-68	n/a	NaN	NaN	NaN	NaN	NaN	NaN	NaN	NaN	NaN	NaN	NaN
1200.95281942654	2.01614360255189	11	object_onset	2	stay	1.20747670784989	100	3	97	n/a	NaN	NaN	NaN	NaN	NaN	NaN	NaN	NaN	NaN	NaN	NaN
1206.25146791292	2.01607032283209	3	object_onset	2	stay	0.524785670536077	50	11	39	n/a	NaN	NaN	NaN	NaN	NaN	NaN	NaN	NaN	NaN	NaN	NaN
1213.91622408223	2.01615032250993	5	object_onset	2	stay	0.814984662432368	3	71	-68	n/a	NaN	NaN	NaN	NaN	NaN	NaN	NaN	NaN	NaN	NaN	NaN
1220.74781593052	2.01615064241923	11	object_onset	1	switch	1.20747670784989	3	100	-97	n/a	NaN	NaN	NaN	NaN	NaN	NaN	NaN	NaN	NaN	NaN	NaN
1226.74625401804	2.01615544245578	12	object_onset	1	stay	0.36	18	72	-54	n/a	NaN	NaN	NaN	NaN	NaN	NaN	NaN	NaN	NaN	NaN	NaN
1232.16154418467	2.01617976231501	12	object_onset	2	switch	0	72	18	54	n/a	NaN	NaN	NaN	NaN	NaN	NaN	NaN	NaN	NaN	NaN	NaN
1238.92651235266	2.01616440247744	6	object_onset	2	stay	0.648999229583518	13	44	-31	n/a	NaN	NaN	NaN	NaN	NaN	NaN	NaN	NaN	NaN	NaN	NaN
1243.97519467911	2.01604824303649	6	object_onset	1	switch	0	44	13	31	n/a	NaN	NaN	NaN	NaN	NaN	NaN	NaN	NaN	NaN	NaN	NaN
1250.60676828749	3.88240984454751	6	choice	1	n/a	NaN	NaN	NaN	NaN	d	3	5	0.36	0.458911756223351	27.2811430344322	32.5937547140354	10.5872433333912	37.0335154537144	1254.48307448137	3.87630619388074	1
1258.80465117772	2.01626808196306	8	object_onset	1	stay	0.814984662432368	44	16	28	n/a	NaN	NaN	NaN	NaN	NaN	NaN	NaN	NaN	NaN	NaN	NaN
1266.18622182612	2.01618232228793	1	object_onset	1	stay	1.27914033631967	1	44	-43	n/a	NaN	NaN	NaN	NaN	NaN	NaN	NaN	NaN	NaN	NaN	NaN
1272.46795071382	2.0161535225343	1	object_onset	1	stay	0	1	44	-43	n/a	NaN	NaN	NaN	NaN	NaN	NaN	NaN	NaN	NaN	NaN	NaN
1277.81662072032	2.01611864264123	1	object_onset	2	switch	0	44	1	43	n/a	NaN	NaN	NaN	NaN	NaN	NaN	NaN	NaN	NaN	NaN	NaN
1282.66535552638	11.5470783340279	1	choice	2	n/a	NaN	NaN	NaN	NaN	d	6	9	1.08747413762351	0.9	25.481413184806	31.2864223035111	70.1156602958224	42.8345172613902	1294.19460578589	11.5292502595112	-1
1297.34497626405	2.01616216241382	2	object_onset	1	switch	0.524785670536077	5	16	-11	n/a	NaN	NaN	NaN	NaN	NaN	NaN	NaN	NaN	NaN	NaN	NaN
1303.67672411166	2.01599608338438	4	object_onset	1	stay	0.569209978830308	14	2	12	n/a	NaN	NaN	NaN	NaN	NaN	NaN	NaN	NaN	NaN	NaN	NaN
1310.20823100046	2.0162968817167	9	object_onset	2	switch	0.9	19	71	-52	n/a	NaN	NaN	NaN	NaN	NaN	NaN	NaN	NaN	NaN	NaN	NaN
1315.57366860635	2.01612344267778	5	object_onset	1	switch	0.524785670536077	71	3	68	n/a	NaN	NaN	NaN	NaN	NaN	NaN	NaN	NaN	NaN	NaN	NaN
1321.47206717404	24.7271043499932	5	choice	1	n/a	NaN	NaN	NaN	NaN	d	8	3	0.853814968245462	0.814984662432368	27.2811430344322	59.8748977484675	13.5499782611421	47.6207587871056	1346.18737510056	24.7153079265263	-1
1351.06460832991	2.01618680241518	10	object_onset	1	stay	1.27914033631967	5	50	-45	n/a	NaN	NaN	NaN	NaN	NaN	NaN	NaN	NaN	NaN	NaN	NaN
1357.31303305738	12.0802623347845	10	choice	1	n/a	NaN	NaN	NaN	NaN	d	4	7	1.08747413762351	1.53792067415716	85.4771471461812	9.13254365480929	48.3436681716825	48.5598131691118	1369.38272808283	12.0696950254496	1
1372.52571779652	2.01627672184259	12	object_onset	2	switch	0.458911756223351	72	18	54	n/a	NaN	NaN	NaN	NaN	NaN	NaN	NaN	NaN	NaN	NaN	NaN
1378.14104956295	2.01614680257626	7	object_onset	1	switch	0.9	90	2	88	n/a	NaN	NaN	NaN	NaN	NaN	NaN	NaN	NaN	NaN	NaN	NaN
1384.20620221016	2.01615544245578	11	object_onset	2	switch	1.26	100	3	97	n/a	NaN	NaN	NaN	NaN	NaN	NaN	NaN	NaN	NaN	NaN	NaN
1389.18827973632	2.01613976247609	11	object_onset	2	stay	0	100	3	97	n/a	NaN	NaN	NaN	NaN	NaN	NaN	NaN	NaN	NaN	NaN	NaN
1395.61983030476	24.7437980298419	11	choice	2	n/a	NaN	NaN	NaN	NaN	d	9	2	0.814984662432368	0.853814968245462	80.9956065625119	83.8378807534661	67.8652316736184	1.88362051778864	1420.35124983406	24.7314195293002	1
1423.29624753795	2.01614904263988	8	object_onset	1	switch	0.853814968245462	44	16	28	n/a	NaN	NaN	NaN	NaN	NaN	NaN	NaN	NaN	NaN	NaN	NaN
1430.49438066711	2.01616184227169	2	object_onset	2	switch	1.20747670784989	16	5	11	n/a	NaN	NaN	NaN	NaN	NaN	NaN	NaN	NaN	NaN	NaN	NaN
1436.69282323448	2.01615960244089	4	object_onset	2	stay	0.569209978830308	2	14	-12	n/a	NaN	NaN	NaN	NaN	NaN	NaN	NaN	NaN	NaN	NaN	NaN
1443.02454132214	2.01618104241788	4	object_onset	1	switch	0	14	2	12	n/a	NaN	NaN	NaN	NaN	NaN	NaN	NaN	NaN	NaN	NaN	NaN
1450.38934245124	2.01615864248015	3	object_onset	1	stay	0.763675323681471	11	50	-39	n/a	NaN	NaN	NaN	NaN	NaN	NaN	NaN	NaN	NaN	NaN	NaN
