onset	duration	object	trial_type	map	stayswitch	distance	value	counterfactual_value	value_diff	choicetype	object1	object2	chosen_distance	unchosen_distance	chosen_value	unchosen_value	counterfactual_chosen_value	counterfactual_unchosen_value	button	response_time	cr
8.77250157197705	2.01616664242465	1	object_onset	1	n/a	NaN	NaN	NaN	NaN	n/a	NaN	NaN	NaN	NaN	NaN	NaN	NaN	NaN	NaN	NaN	NaN
13.9045390182291	11.7969724945142	1	choice	1	n/a	NaN	NaN	NaN	NaN	v	12	7	0.763675323681471	1.53792067415716	17.1247340052303	89.6111962861739	27.8392176156901	42.5965750214792	25.6817768875044	11.7772378692753	1
29.5005710372934	2.01611864258302	7	object_onset	1	stay	1.53792067415716	90	2	88	n/a	NaN	NaN	NaN	NaN	NaN	NaN	NaN	NaN	NaN	NaN	NaN
33.649514962337	9.46414049214218	7	choice	1	n/a	NaN	NaN	NaN	NaN	d	1	10	1.08747413762351	1.53792067415716	85.4771471461812	89.6111962861739	48.3436681716825	42.5965750214792	43.087810458499	9.43829549616203	1
46.8294846584904	2.01616184244631	10	object_onset	2	switch	1.08747413762351	50	5	45	n/a	NaN	NaN	NaN	NaN	NaN	NaN	NaN	NaN	NaN	NaN	NaN
52.5945373062277	2.01627928187372	2	object_onset	2	stay	1.26	16	5	11	n/a	NaN	NaN	NaN	NaN	NaN	NaN	NaN	NaN	NaN	NaN	NaN
60.2927345948992	2.01612152258167	11	object_onset	1	switch	0.853814968245462	3	100	-97	n/a	NaN	NaN	NaN	NaN	NaN	NaN	NaN	NaN	NaN	NaN	NaN
65.5080609213328	16.1458924196777	11	choice	1	n/a	NaN	NaN	NaN	NaN	v	6	1	0.9	0.569209978830308	40.5840886391862	2.25042862220399	86.800615681217	55.5141933777059	81.6343569551245	16.1262960337917	-1
85.5529346259427	2.0160744828172	10	object_onset	1	stay	0.524785670536077	5	50	-45	n/a	NaN	NaN	NaN	NaN	NaN	NaN	NaN	NaN	NaN	NaN	NaN
91.7680571133387	2.01614296250045	7	object_onset	2	switch	1.08747413762351	2	90	-88	n/a	NaN	NaN	NaN	NaN	NaN	NaN	NaN	NaN	NaN	NaN	NaN
98.9828484023456	2.01615064247744	7	object_onset	2	stay	0	2	90	-88	n/a	NaN	NaN	NaN	NaN	NaN	NaN	NaN	NaN	NaN	NaN	NaN
105.247924249968	2.01616440241924	8	object_onset	1	switch	0.524785670536077	44	16	28	n/a	NaN	NaN	NaN	NaN	NaN	NaN	NaN	NaN	NaN	NaN	NaN
110.346645696089	2.01615224248962	5	object_onset	1	stay	0.853814968245462	71	3	68	n/a	NaN	NaN	NaN	NaN	NaN	NaN	NaN	NaN	NaN	NaN	NaN
116.844974504143	10.3473788125557	5	choice	1	n/a	NaN	NaN	NaN	NaN	v	9	2	0.853814968245462	0.524785670536077	65.9816111558298	1.4210854715202e-14	13.5499782611421	16.3922524520963	127.181776087498	10.3368015833548	-1
130.508157240867	2.01615992240841	7	object_onset	2	switch	0.569209978830308	2	90	-88	n/a	NaN	NaN	NaN	NaN	NaN	NaN	NaN	NaN	NaN	NaN	NaN
136.356672527967	2.01617080240976	5	object_onset	2	stay	0.569209978830308	3	71	-68	n/a	NaN	NaN	NaN	NaN	NaN	NaN	NaN	NaN	NaN	NaN	NaN
141.505359814269	2.01605784293497	4	object_onset	1	switch	0.524785670536077	14	2	12	n/a	NaN	NaN	NaN	NaN	NaN	NaN	NaN	NaN	NaN	NaN	NaN
147.053849661548	2.01616120239487	1	object_onset	1	stay	1.08747413762351	1	44	-43	n/a	NaN	NaN	NaN	NaN	NaN	NaN	NaN	NaN	NaN	NaN	NaN
154.652014470368	2.01617432234343	8	object_onset	1	stay	1.27914033631967	44	16	28	n/a	NaN	NaN	NaN	NaN	NaN	NaN	NaN	NaN	NaN	NaN	NaN
162.400067519688	2.01611320266966	2	object_onset	1	stay	1.20747670784989	5	16	-11	n/a	NaN	NaN	NaN	NaN	NaN	NaN	NaN	NaN	NaN	NaN	NaN
167.948644726537	2.01617112237727	12	object_onset	2	switch	0.814984662432368	72	18	54	n/a	NaN	NaN	NaN	NaN	NaN	NaN	NaN	NaN	NaN	NaN	NaN
172.630772652279	20.7280486653908	12	choice	2	n/a	NaN	NaN	NaN	NaN	v	8	6	0.524785670536077	0.648999229583518	56.1629049914503	59.1256399192012	25.7097832561599	25.70978325616	193.342610515479	20.7118378632003	1
197.524432682723	2.01617528236238	8	object_onset	1	switch	0.524785670536077	44	16	28	n/a	NaN	NaN	NaN	NaN	NaN	NaN	NaN	NaN	NaN	NaN	NaN
203.589570610086	2.01616632239893	3	object_onset	1	stay	0.9	11	50	-39	n/a	NaN	NaN	NaN	NaN	NaN	NaN	NaN	NaN	NaN	NaN	NaN
210.42116597842	2.01613176258979	1	object_onset	2	switch	0.458911756223351	44	1	43	n/a	NaN	NaN	NaN	NaN	NaN	NaN	NaN	NaN	NaN	NaN	NaN
216.319649345707	17.5788772213855	1	choice	2	n/a	NaN	NaN	NaN	NaN	d	11	3	0.569209978830308	0.458911756223351	55.5141933777059	5.74709315020333	2.25042862220399	10.2407625473549	233.880368254264	17.5607189085567	-1
239.280492413673	2.01615032245172	1	object_onset	1	switch	0	1	44	-43	n/a	NaN	NaN	NaN	NaN	NaN	NaN	NaN	NaN	NaN	NaN	NaN
245.895477301732	2.01615128247067	5	object_onset	2	switch	1.26	3	71	-68	n/a	NaN	NaN	NaN	NaN	NaN	NaN	NaN	NaN	NaN	NaN	NaN
251.394065628469	2.01619032229064	2	object_onset	1	switch	0.853814968245462	5	16	-11	n/a	NaN	NaN	NaN	NaN	NaN	NaN	NaN	NaN	NaN	NaN	NaN
257.342485076108	9.81426745146746	2	choice	1	n/a	NaN	NaN	NaN	NaN	v	7	10	1.26	1.27914033631967	1.77635683940025e-15	85.4771471461812	34.0707805259635	14.272887645719	267.135330870398	9.79284579429077	1
270.472510051972	2.01607384282397	4	object_onset	2	switch	0.569209978830308	2	14	-12	n/a	NaN	NaN	NaN	NaN	NaN	NaN	NaN	NaN	NaN	NaN	NaN
277.687382940552	2.01603224308928	3	object_onset	1	switch	0.763675323681471	11	50	-39	n/a	NaN	NaN	NaN	NaN	NaN	NaN	NaN	NaN	NaN	NaN	NaN
284.369005908782	7.83132368966471	3	choice	1	n/a	NaN	NaN	NaN	NaN	d	5	12	0.458911756223351	0.814984662432368	6.8839714578754	59.8748977484675	22.0921244654867	47.6207587871056	292.181392409315	7.81238650053274	1
296.082698483078	2.01612312259385	11	object_onset	1	stay	0.524785670536077	3	100	-97	n/a	NaN	NaN	NaN	NaN	NaN	NaN	NaN	NaN	NaN	NaN	NaN
300.931433289137	2.01618488231907	7	object_onset	1	stay	1.26	90	2	88	n/a	NaN	NaN	NaN	NaN	NaN	NaN	NaN	NaN	NaN	NaN	NaN
306.879918016377	2.01615832245443	7	object_onset	1	stay	0	90	2	88	n/a	NaN	NaN	NaN	NaN	NaN	NaN	NaN	NaN	NaN	NaN	NaN
312.711800423393	2.01606680284021	6	object_onset	2	switch	0.763675323681471	13	44	-31	n/a	NaN	NaN	NaN	NaN	NaN	NaN	NaN	NaN	NaN	NaN	NaN
317.643868589425	2.01613208255731	1	object_onset	1	switch	0.9	1	44	-43	n/a	NaN	NaN	NaN	NaN	NaN	NaN	NaN	NaN	NaN	NaN	NaN
324.175545717415	2.01614648249233	8	object_onset	2	switch	1.27914033631967	16	44	-28	n/a	NaN	NaN	NaN	NaN	NaN	NaN	NaN	NaN	NaN	NaN	NaN
329.624154764053	2.01611992262769	10	object_onset	1	switch	0.569209978830308	5	50	-45	n/a	NaN	NaN	NaN	NaN	NaN	NaN	NaN	NaN	NaN	NaN	NaN
335.322679411154	9.38098057126626	10	choice	1	n/a	NaN	NaN	NaN	NaN	v	2	9	1.26	0.763675323681471	1.77635683940025e-15	65.9816111558297	34.0707805259635	31.2285063350093	344.692845954327	9.37016654317267	1
349.885653988866	2.01613752252888	8	object_onset	1	stay	0.569209978830308	44	16	28	n/a	NaN	NaN	NaN	NaN	NaN	NaN	NaN	NaN	NaN	NaN	NaN
356.667241917225	15.9460136991693	8	choice	1	n/a	NaN	NaN	NaN	NaN	d	9	11	0.36	0.853814968245462	27.2811430344322	40.5840886391862	2.84227419095423	83.8378807534661	372.593890269345	15.9266483521205	1
376.612199301482	2.01612248260062	5	object_onset	2	switch	0.853814968245462	3	71	-68	n/a	NaN	NaN	NaN	NaN	NaN	NaN	NaN	NaN	NaN	NaN	NaN
383.027105789923	2.01626584189944	7	object_onset	2	stay	0.569209978830308	2	90	-88	n/a	NaN	NaN	NaN	NaN	NaN	NaN	NaN	NaN	NaN	NaN	NaN
388.125897635706	2.01618136232719	10	object_onset	1	switch	1.08747413762351	5	50	-45	n/a	NaN	NaN	NaN	NaN	NaN	NaN	NaN	NaN	NaN	NaN	NaN
395.090826444037	2.01614712248556	11	object_onset	2	switch	0.524785670536077	100	3	97	n/a	NaN	NaN	NaN	NaN	NaN	NaN	NaN	NaN	NaN	NaN	NaN
400.056245490036	2.01613016257761	3	object_onset	1	switch	0.524785670536077	11	50	-39	n/a	NaN	NaN	NaN	NaN	NaN	NaN	NaN	NaN	NaN	NaN	NaN
407.021110938687	2.0161618423881	7	object_onset	1	stay	1.08747413762351	90	2	88	n/a	NaN	NaN	NaN	NaN	NaN	NaN	NaN	NaN	NaN	NaN	NaN
412.902943505906	2.01616408239352	9	object_onset	1	stay	0.458911756223351	71	19	52	n/a	NaN	NaN	NaN	NaN	NaN	NaN	NaN	NaN	NaN	NaN	NaN
419.034731033316	2.01614744245308	4	object_onset	2	switch	0.9	2	14	-12	n/a	NaN	NaN	NaN	NaN	NaN	NaN	NaN	NaN	NaN	NaN	NaN
424.833223520545	14.2630787371891	4	choice	2	n/a	NaN	NaN	NaN	NaN	v	5	8	1.26	0.524785670536077	14.4890326431482	0.93905438200614	29.5679244665883	56.8490675010205	439.088981652923	14.2557581323781	-1
443.728440663486	2.01615512248827	11	object_onset	1	switch	1.27914033631967	3	100	-97	n/a	NaN	NaN	NaN	NaN	NaN	NaN	NaN	NaN	NaN	NaN	NaN
448.810483789712	2.01611736259656	11	object_onset	2	switch	0	100	3	97	n/a	NaN	NaN	NaN	NaN	NaN	NaN	NaN	NaN	NaN	NaN	NaN
453.892371716618	6.81508344761096	11	choice	2	n/a	NaN	NaN	NaN	NaN	v	2	12	0.36	0.853814968245462	27.6749757620158	83.8378807534661	14.8743053830263	1.88362051778864	460.693067073298	6.80069535668008	1
465.339604129898	2.01615608244902	2	object_onset	1	switch	0.853814968245462	5	16	-11	n/a	NaN	NaN	NaN	NaN	NaN	NaN	NaN	NaN	NaN	NaN	NaN
470.888181656715	2.01605688297423	3	object_onset	1	stay	0.36	11	50	-39	n/a	NaN	NaN	NaN	NaN	NaN	NaN	NaN	NaN	NaN	NaN	NaN
477.869766705146	2.0160268030595	10	object_onset	2	switch	0.9	50	5	45	n/a	NaN	NaN	NaN	NaN	NaN	NaN	NaN	NaN	NaN	NaN	NaN
485.067884794145	2.01618648233125	10	object_onset	2	stay	0	50	5	45	n/a	NaN	NaN	NaN	NaN	NaN	NaN	NaN	NaN	NaN	NaN	NaN
490.833113121043	8.86441857082536	10	choice	2	n/a	NaN	NaN	NaN	NaN	d	6	1	1.08747413762351	1.08747413762351	5.74709315020331	37.0335154537144	4.13404913999263	38.7004681213976	499.683111921069	8.84999880002579	1
505.212785538635	2.016118002648	10	object_onset	1	switch	0	5	50	-45	n/a	NaN	NaN	NaN	NaN	NaN	NaN	NaN	NaN	NaN	NaN	NaN
512.960809788143	2.01612856256543	11	object_onset	1	stay	0.524785670536077	3	100	-97	n/a	NaN	NaN	NaN	NaN	NaN	NaN	NaN	NaN	NaN	NaN	NaN
518.359441154695	2.0161080826656	1	object_onset	2	switch	0.569209978830308	44	1	43	n/a	NaN	NaN	NaN	NaN	NaN	NaN	NaN	NaN	NaN	NaN	NaN
524.74110428273	2.01610648265341	6	object_onset	1	switch	0.9	44	13	31	n/a	NaN	NaN	NaN	NaN	NaN	NaN	NaN	NaN	NaN	NaN	NaN
530.172977729701	2.01627192192245	12	object_onset	2	switch	0.648999229583518	72	18	54	n/a	NaN	NaN	NaN	NaN	NaN	NaN	NaN	NaN	NaN	NaN	NaN
535.638224456517	2.01630392175866	12	object_onset	2	stay	0	72	18	54	n/a	NaN	NaN	NaN	NaN	NaN	NaN	NaN	NaN	NaN	NaN	NaN
541.353448543465	2.01620056224056	6	object_onset	1	switch	0.648999229583518	44	13	31	n/a	NaN	NaN	NaN	NaN	NaN	NaN	NaN	NaN	NaN	NaN	NaN
546.202354868699	2.01612120261416	2	object_onset	1	stay	0.524785670536077	5	16	-11	n/a	NaN	NaN	NaN	NaN	NaN	NaN	NaN	NaN	NaN	NaN	NaN
552.150802156189	2.01616024237592	11	object_onset	2	switch	0.853814968245462	100	3	97	n/a	NaN	NaN	NaN	NaN	NaN	NaN	NaN	NaN	NaN	NaN	NaN
558.115953683446	2.01614776247879	7	object_onset	1	switch	1.26	90	2	88	n/a	NaN	NaN	NaN	NaN	NaN	NaN	NaN	NaN	NaN	NaN	NaN
565.730711692595	2.01612472260604	2	object_onset	2	switch	1.27914033631967	16	5	11	n/a	NaN	NaN	NaN	NaN	NaN	NaN	NaN	NaN	NaN	NaN	NaN
572.595604501083	2.01618392235832	11	object_onset	2	stay	0.853814968245462	100	3	97	n/a	NaN	NaN	NaN	NaN	NaN	NaN	NaN	NaN	NaN	NaN	NaN
579.860438749893	2.01615544245578	9	object_onset	2	stay	0.814984662432368	19	71	-52	n/a	NaN	NaN	NaN	NaN	NaN	NaN	NaN	NaN	NaN	NaN	NaN
585.725614757044	2.0161656824057	6	object_onset	2	stay	0.458911756223351	13	44	-31	n/a	NaN	NaN	NaN	NaN	NaN	NaN	NaN	NaN	NaN	NaN	NaN
591.157572363678	2.01603000302566	5	object_onset	2	stay	0.36	3	71	-68	n/a	NaN	NaN	NaN	NaN	NaN	NaN	NaN	NaN	NaN	NaN	NaN
596.439420610783	7.93145952897612	5	choice	2	n/a	NaN	NaN	NaN	NaN	d	3	4	0.524785670536077	0.814984662432368	0.93905438200614	47.6207587871056	56.8490675010205	59.8748977484675	604.35764116334	7.91822055255761	1
607.286788383441	2.01617624232313	12	object_onset	1	switch	0.9	18	72	-54	n/a	NaN	NaN	NaN	NaN	NaN	NaN	NaN	NaN	NaN	NaN	NaN
614.918184712704	2.01610104274005	1	object_onset	2	switch	0.763675323681471	44	1	43	n/a	NaN	NaN	NaN	NaN	NaN	NaN	NaN	NaN	NaN	NaN	NaN
619.883581038797	2.01616472244496	1	object_onset	2	stay	0	44	1	43	n/a	NaN	NaN	NaN	NaN	NaN	NaN	NaN	NaN	NaN	NaN	NaN
626.465219526959	2.01616024243413	6	object_onset	2	stay	0.9	13	44	-31	n/a	NaN	NaN	NaN	NaN	NaN	NaN	NaN	NaN	NaN	NaN	NaN
631.330636812956	2.01618744229199	3	object_onset	1	switch	0.458911756223351	11	50	-39	n/a	NaN	NaN	NaN	NaN	NaN	NaN	NaN	NaN	NaN	NaN	NaN
636.645984099305	2.01615768240299	8	object_onset	1	stay	0.9	44	16	28	n/a	NaN	NaN	NaN	NaN	NaN	NaN	NaN	NaN	NaN	NaN	NaN
644.010797388211	2.01613912248285	9	object_onset	1	stay	0.36	71	19	52	n/a	NaN	NaN	NaN	NaN	NaN	NaN	NaN	NaN	NaN	NaN	NaN
648.892839234381	2.0161836023326	8	object_onset	1	stay	0.36	44	16	28	n/a	NaN	NaN	NaN	NaN	NaN	NaN	NaN	NaN	NaN	NaN	NaN
655.191266601905	2.01615320250858	12	object_onset	2	switch	0.524785670536077	72	18	54	n/a	NaN	NaN	NaN	NaN	NaN	NaN	NaN	NaN	NaN	NaN	NaN
662.222812690481	2.0161439225194	2	object_onset	1	switch	0.814984662432368	5	16	-11	n/a	NaN	NaN	NaN	NaN	NaN	NaN	NaN	NaN	NaN	NaN	NaN
668.287908378057	2.01606104290113	6	object_onset	1	stay	0.524785670536077	44	13	31	n/a	NaN	NaN	NaN	NaN	NaN	NaN	NaN	NaN	NaN	NaN	NaN
674.23641134525	2.01615960244089	5	object_onset	1	stay	0.36	71	3	68	n/a	NaN	NaN	NaN	NaN	NaN	NaN	NaN	NaN	NaN	NaN	NaN
680.068280632258	2.0161359225749	10	object_onset	2	switch	1.27914033631967	50	5	45	n/a	NaN	NaN	NaN	NaN	NaN	NaN	NaN	NaN	NaN	NaN	NaN
685.850098319526	2.01618712232448	5	object_onset	1	switch	1.27914033631967	71	3	68	n/a	NaN	NaN	NaN	NaN	NaN	NaN	NaN	NaN	NaN	NaN	NaN
691.048767125932	2.01607960282126	4	object_onset	1	stay	0.524785670536077	14	2	12	n/a	NaN	NaN	NaN	NaN	NaN	NaN	NaN	NaN	NaN	NaN	NaN
696.797334732779	2.01612888259115	4	object_onset	2	switch	0	2	14	-12	n/a	NaN	NaN	NaN	NaN	NaN	NaN	NaN	NaN	NaN	NaN	NaN
701.896057458944	2.01613112253835	4	object_onset	2	stay	0	2	14	-12	n/a	NaN	NaN	NaN	NaN	NaN	NaN	NaN	NaN	NaN	NaN	NaN
707.094881144585	2.01599864318268	3	object_onset	2	stay	0.763675323681471	50	11	39	n/a	NaN	NaN	NaN	NaN	NaN	NaN	NaN	NaN	NaN	NaN	NaN
714.809417554818	2.01615896244766	10	object_onset	1	switch	0.9	5	50	-45	n/a	NaN	NaN	NaN	NaN	NaN	NaN	NaN	NaN	NaN	NaN	NaN
720.824579082022	2.01613624254242	3	object_onset	2	switch	0.9	50	11	39	n/a	NaN	NaN	NaN	NaN	NaN	NaN	NaN	NaN	NaN	NaN	NaN
727.356224210118	2.01615704246797	6	object_onset	1	switch	0.458911756223351	44	13	31	n/a	NaN	NaN	NaN	NaN	NaN	NaN	NaN	NaN	NaN	NaN	NaN
734.05449861841	2.01614680251805	1	object_onset	1	stay	0.9	1	44	-43	n/a	NaN	NaN	NaN	NaN	NaN	NaN	NaN	NaN	NaN	NaN	NaN
740.469558066106	2.01604696299182	9	object_onset	2	switch	1.08747413762351	19	71	-52	n/a	NaN	NaN	NaN	NaN	NaN	NaN	NaN	NaN	NaN	NaN	NaN
746.034806232958	2.01615512243006	5	object_onset	2	stay	0.524785670536077	3	71	-68	n/a	NaN	NaN	NaN	NaN	NaN	NaN	NaN	NaN	NaN	NaN	NaN
752.283209200599	2.01616088242736	5	object_onset	1	switch	0	71	3	68	n/a	NaN	NaN	NaN	NaN	NaN	NaN	NaN	NaN	NaN	NaN	NaN
759.081455609004	2.01616824243683	8	object_onset	2	switch	0.853814968245462	16	44	-28	n/a	NaN	NaN	NaN	NaN	NaN	NaN	NaN	NaN	NaN	NaN	NaN
765.729789456993	2.01614616252482	9	object_onset	1	switch	0.36	71	19	52	n/a	NaN	NaN	NaN	NaN	NaN	NaN	NaN	NaN	NaN	NaN	NaN
770.861814103322	2.01615192246391	9	object_onset	2	switch	0	19	71	-52	n/a	NaN	NaN	NaN	NaN	NaN	NaN	NaN	NaN	NaN	NaN	NaN
778.093302912137	2.01608504279284	12	object_onset	1	switch	0.458911756223351	18	72	-54	n/a	NaN	NaN	NaN	NaN	NaN	NaN	NaN	NaN	NaN	NaN	NaN
783.558585478808	2.01612568256678	7	object_onset	1	stay	0.9	90	2	88	n/a	NaN	NaN	NaN	NaN	NaN	NaN	NaN	NaN	NaN	NaN	NaN
788.85721028538	2.01618040236644	7	object_onset	2	switch	0	2	90	-88	n/a	NaN	NaN	NaN	NaN	NaN	NaN	NaN	NaN	NaN	NaN	NaN
795.472193573485	2.01618328230688	9	object_onset	1	switch	0.458911756223351	71	19	52	n/a	NaN	NaN	NaN	NaN	NaN	NaN	NaN	NaN	NaN	NaN	NaN
801.820597341168	2.01615064247744	3	object_onset	2	switch	0.648999229583518	50	11	39	n/a	NaN	NaN	NaN	NaN	NaN	NaN	NaN	NaN	NaN	NaN	NaN
808.135526389466	2.01626584195765	6	object_onset	2	stay	0.458911756223351	13	44	-31	n/a	NaN	NaN	NaN	NaN	NaN	NaN	NaN	NaN	NaN	NaN	NaN
814.267315196921	2.01623608206864	9	object_onset	2	stay	0.458911756223351	19	71	-52	n/a	NaN	NaN	NaN	NaN	NaN	NaN	NaN	NaN	NaN	NaN	NaN
818.616322161688	13.0633449759334	9	choice	2	n/a	NaN	NaN	NaN	NaN	v	1	11	1.08747413762351	0.814984662432368	25.481413184806	80.9956065625119	70.1156602958224	67.8652316736184	831.6628166585	13.0464944968116	1
834.662253781222	2.01611256261822	3	object_onset	2	stay	0.648999229583518	50	11	39	n/a	NaN	NaN	NaN	NaN	NaN	NaN	NaN	NaN	NaN	NaN	NaN
840.094190267904	2.01603672304191	12	object_onset	1	switch	0.458911756223351	18	72	-54	n/a	NaN	NaN	NaN	NaN	NaN	NaN	NaN	NaN	NaN	NaN	NaN
847.209034516651	2.0161656824057	6	object_onset	1	stay	0.648999229583518	44	13	31	n/a	NaN	NaN	NaN	NaN	NaN	NaN	NaN	NaN	NaN	NaN	NaN
853.657401004515	2.01612888253294	3	object_onset	1	stay	0.458911756223351	11	50	-39	n/a	NaN	NaN	NaN	NaN	NaN	NaN	NaN	NaN	NaN	NaN	NaN
859.672543651774	2.0160047232057	4	object_onset	1	stay	0.763675323681471	14	2	12	n/a	NaN	NaN	NaN	NaN	NaN	NaN	NaN	NaN	NaN	NaN	NaN
866.220843099989	2.01619000226492	8	object_onset	2	switch	1.26	16	44	-28	n/a	NaN	NaN	NaN	NaN	NaN	NaN	NaN	NaN	NaN	NaN	NaN
870.952969825768	8.84778729063692	8	choice	2	n/a	NaN	NaN	NaN	NaN	d	4	5	0.853814968245462	1.26	13.5499782611421	14.4890326431482	27.2811430344322	29.5679244665883	879.782974161732	8.83000433596317	1
883.633101281128	2.01616184244631	6	object_onset	2	stay	0.814984662432368	13	44	-31	n/a	NaN	NaN	NaN	NaN	NaN	NaN	NaN	NaN	NaN	NaN	NaN
887.681952566665	9.51433865114814	6	choice	2	n/a	NaN	NaN	NaN	NaN	v	8	7	0.814984662432368	0.763675323681471	2.96273492775089	11.3101527179681	7.105427357601e-15	46.7766790247836	897.18940613087	9.50745356420521	1
900.795373782224	2.01603800302837	8	object_onset	2	stay	0.814984662432368	16	44	-28	n/a	NaN	NaN	NaN	NaN	NaN	NaN	NaN	NaN	NaN	NaN	NaN
906.477286989044	2.01612280262634	3	object_onset	2	stay	0.9	50	11	39	n/a	NaN	NaN	NaN	NaN	NaN	NaN	NaN	NaN	NaN	NaN	NaN
911.342719634937	2.0161557624815	10	object_onset	2	stay	0.9	50	5	45	n/a	NaN	NaN	NaN	NaN	NaN	NaN	NaN	NaN	NaN	NaN	NaN
918.974105724308	2.01614360249368	9	object_onset	1	switch	0.763675323681471	71	19	52	n/a	NaN	NaN	NaN	NaN	NaN	NaN	NaN	NaN	NaN	NaN	NaN
924.539391970902	7.83131888968637	9	choice	1	n/a	NaN	NaN	NaN	NaN	d	10	4	0.763675323681471	0.9	65.9816111558297	56.8490675010204	31.2285063350093	17.3313068341025	932.357428684365	7.81803671346279	1
935.586542144592	2.01613496255595	4	object_onset	1	stay	0.9	14	2	12	n/a	NaN	NaN	NaN	NaN	NaN	NaN	NaN	NaN	NaN	NaN	NaN
941.151796711376	2.01614840247203	2	object_onset	1	stay	0.569209978830308	5	16	-11	n/a	NaN	NaN	NaN	NaN	NaN	NaN	NaN	NaN	NaN	NaN	NaN
948.949810800899	2.01612664258573	10	object_onset	1	stay	1.26	5	50	-45	n/a	NaN	NaN	NaN	NaN	NaN	NaN	NaN	NaN	NaN	NaN	NaN
954.048401047708	2.01626808190485	8	object_onset	2	switch	0.569209978830308	16	44	-28	n/a	NaN	NaN	NaN	NaN	NaN	NaN	NaN	NaN	NaN	NaN	NaN
960.063638414547	2.01615896244766	11	object_onset	2	stay	0.853814968245462	100	3	97	n/a	NaN	NaN	NaN	NaN	NaN	NaN	NaN	NaN	NaN	NaN	NaN
966.945229382894	2.01615224248962	5	object_onset	2	stay	1.20747670784989	3	71	-68	n/a	NaN	NaN	NaN	NaN	NaN	NaN	NaN	NaN	NaN	NaN	NaN
971.82732530887	2.01614840247203	9	object_onset	1	switch	0.524785670536077	71	19	52	n/a	NaN	NaN	NaN	NaN	NaN	NaN	NaN	NaN	NaN	NaN	NaN
977.942422996392	2.01616056240164	2	object_onset	2	switch	0.9	16	5	11	n/a	NaN	NaN	NaN	NaN	NaN	NaN	NaN	NaN	NaN	NaN	NaN
983.907622843399	2.01608568278607	2	object_onset	2	stay	0	16	5	11	n/a	NaN	NaN	NaN	NaN	NaN	NaN	NaN	NaN	NaN	NaN	NaN
988.589724209334	9.01437433098909	2	choice	2	n/a	NaN	NaN	NaN	NaN	d	10	9	1.26	0.9	34.0707805259635	2.84227419095423	1.77635683940025e-15	65.9816111558297	997.585652228852	8.99592801951803	-1
1002.40284542635	2.01614360249368	5	object_onset	1	switch	0.853814968245462	71	3	68	n/a	NaN	NaN	NaN	NaN	NaN	NaN	NaN	NaN	NaN	NaN	NaN
1009.73431199533	2.01618232228793	2	object_onset	2	switch	0.853814968245462	16	5	11	n/a	NaN	NaN	NaN	NaN	NaN	NaN	NaN	NaN	NaN	NaN	NaN
1015.64935112314	2.01629528176272	12	object_onset	2	stay	0.814984662432368	72	18	54	n/a	NaN	NaN	NaN	NaN	NaN	NaN	NaN	NaN	NaN	NaN	NaN
1020.99812896899	2.01615672244225	11	object_onset	2	stay	0.36	100	3	97	n/a	NaN	NaN	NaN	NaN	NaN	NaN	NaN	NaN	NaN	NaN	NaN
1025.93021729495	2.01615096250316	4	object_onset	2	stay	1.27914033631967	2	14	-12	n/a	NaN	NaN	NaN	NaN	NaN	NaN	NaN	NaN	NaN	NaN	NaN
1033.41163162416	2.0161717623705	12	object_onset	2	stay	1.08747413762351	72	18	54	n/a	NaN	NaN	NaN	NaN	NaN	NaN	NaN	NaN	NaN	NaN	NaN
1039.6933765118	2.0161538424436	8	object_onset	2	stay	0.524785670536077	16	44	-28	n/a	NaN	NaN	NaN	NaN	NaN	NaN	NaN	NaN	NaN	NaN	NaN
1046.02506803966	2.01618328236509	7	object_onset	2	stay	0.524785670536077	2	90	-88	n/a	NaN	NaN	NaN	NaN	NaN	NaN	NaN	NaN	NaN	NaN	NaN
1050.97368364636	10.730725132511	7	choice	2	n/a	NaN	NaN	NaN	NaN	d	12	2	1.27914033631967	0.9	14.272887645719	70.4357926371693	85.4771471461812	72.4864622809436	1061.68475671316	10.7110730668064	-1
1067.36962382583	2.01608440279961	1	object_onset	2	stay	1.53792067415716	44	1	43	n/a	NaN	NaN	NaN	NaN	NaN	NaN	NaN	NaN	NaN	NaN	NaN
1074.7011319946	2.01612056262093	12	object_onset	1	switch	0.763675323681471	18	72	-54	n/a	NaN	NaN	NaN	NaN	NaN	NaN	NaN	NaN	NaN	NaN	NaN
1080.48299352167	8.66444673063233	12	choice	1	n/a	NaN	NaN	NaN	NaN	v	4	8	1.08747413762351	0.524785670536077	3.85814121042835	25.7097832561599	70.6519376345985	56.1629049914503	1089.13695006265	8.65395654097665	1
1094.07941113884	2.01629368180875	1	object_onset	1	stay	0.763675323681471	1	44	-43	n/a	NaN	NaN	NaN	NaN	NaN	NaN	NaN	NaN	NaN	NaN	NaN
1098.97816074482	2.01626520196442	3	object_onset	2	switch	0.458911756223351	50	11	39	n/a	NaN	NaN	NaN	NaN	NaN	NaN	NaN	NaN	NaN	NaN	NaN
1103.96032083046	12.1302368148463	3	choice	2	n/a	NaN	NaN	NaN	NaN	v	7	6	0.458911756223351	1.08747413762351	37.0335154537144	48.3436681716825	32.5937547140354	79.370433738819	1116.07742074836	12.1170999179012	1
1121.18925477157	2.01619224227034	1	object_onset	2	stay	0.458911756223351	44	1	43	n/a	NaN	NaN	NaN	NaN	NaN	NaN	NaN	NaN	NaN	NaN	NaN
1127.2544134988	2.01615032250993	4	object_onset	1	switch	1.08747413762351	14	2	12	n/a	NaN	NaN	NaN	NaN	NaN	NaN	NaN	NaN	NaN	NaN	NaN
1133.38618566631	6.73162016825518	4	choice	1	n/a	NaN	NaN	NaN	NaN	d	3	5	0.524785670536077	0.763675323681471	56.8490675010205	3.02583024744705	0.93905438200614	48.5598131691118	1140.10119471425	6.71500904794084	1
1144.0501482393	2.01612312259385	10	object_onset	2	switch	1.53792067415716	50	5	45	n/a	NaN	NaN	NaN	NaN	NaN	NaN	NaN	NaN	NaN	NaN	NaN
1150.91502600786	2.01619192230282	4	object_onset	2	stay	1.53792067415716	2	14	-12	n/a	NaN	NaN	NaN	NaN	NaN	NaN	NaN	NaN	NaN	NaN	NaN
1156.24703337427	2.01603160303785	9	object_onset	2	stay	0.9	19	71	-52	n/a	NaN	NaN	NaN	NaN	NaN	NaN	NaN	NaN	NaN	NaN	NaN
1162.89533074241	2.01616536243819	2	object_onset	2	stay	0.9	16	5	11	n/a	NaN	NaN	NaN	NaN	NaN	NaN	NaN	NaN	NaN	NaN	NaN
1169.27707163006	2.01612376258709	12	object_onset	1	switch	0.814984662432368	18	72	-54	n/a	NaN	NaN	NaN	NaN	NaN	NaN	NaN	NaN	NaN	NaN	NaN
1174.29243091634	2.01615448243683	5	object_onset	1	stay	0.9	71	3	68	n/a	NaN	NaN	NaN	NaN	NaN	NaN	NaN	NaN	NaN	NaN	NaN
1180.40754268382	2.01615800242871	6	object_onset	1	stay	0.36	44	13	31	n/a	NaN	NaN	NaN	NaN	NaN	NaN	NaN	NaN	NaN	NaN	NaN
1185.63940173091	12.9635032151709	6	choice	1	n/a	NaN	NaN	NaN	NaN	d	11	3	0.458911756223351	0.9	32.5937547140354	40.5840886391862	37.0335154537144	86.800615681217	1198.5963097777	12.9569080467918	1
1202.13535519032	2.01612440258032	12	object_onset	1	stay	0.648999229583518	18	72	-54	n/a	NaN	NaN	NaN	NaN	NaN	NaN	NaN	NaN	NaN	NaN	NaN
1207.83389039733	2.01616312243277	9	object_onset	2	switch	0.458911756223351	19	71	-52	n/a	NaN	NaN	NaN	NaN	NaN	NaN	NaN	NaN	NaN	NaN	NaN
1213.73228192504	2.01623608206864	11	object_onset	1	switch	0.814984662432368	3	100	-97	n/a	NaN	NaN	NaN	NaN	NaN	NaN	NaN	NaN	NaN	NaN	NaN
1219.64755369176	2.01602104312042	6	object_onset	2	switch	0.9	13	44	-31	n/a	NaN	NaN	NaN	NaN	NaN	NaN	NaN	NaN	NaN	NaN	NaN
1225.94594873948	2.01613464253023	4	object_onset	1	switch	0.458911756223351	14	2	12	n/a	NaN	NaN	NaN	NaN	NaN	NaN	NaN	NaN	NaN	NaN	NaN
1232.74419546785	2.01622968213633	11	object_onset	1	stay	1.27914033631967	3	100	-97	n/a	NaN	NaN	NaN	NaN	NaN	NaN	NaN	NaN	NaN	NaN	NaN
