onset	duration	object	trial_type	map	stayswitch	distance	value	counterfactual_value	value_diff	choicetype	object1	object2	chosen_distance	unchosen_distance	chosen_value	unchosen_value	counterfactual_chosen_value	counterfactual_unchosen_value	button	response_time	cr
8.77104331972077	2.016147488961	1	object_onset	1	n/a	NaN	NaN	NaN	NaN	n/a	NaN	NaN	NaN	NaN	NaN	NaN	NaN	NaN	NaN	NaN	NaN
15.8859122190624	2.01615164894611	6	object_onset	1	stay	0.9	44	13	31	n/a	NaN	NaN	NaN	NaN	NaN	NaN	NaN	NaN	NaN	NaN	NaN
21.0844583979342	5.61540009849705	6	choice	1	n/a	NaN	NaN	NaN	NaN	d	11	1	0.9	0.9	42.8345172613902	40.5840886391862	31.2864223035111	86.800615681217	26.6735171070322	5.58905870909803	-1
31.248675682582	2.01615804899484	1	object_onset	2	switch	0.9	44	1	43	n/a	NaN	NaN	NaN	NaN	NaN	NaN	NaN	NaN	NaN	NaN	NaN
38.8801157502457	2.01616220897995	5	object_onset	2	stay	1.26	3	71	-68	n/a	NaN	NaN	NaN	NaN	NaN	NaN	NaN	NaN	NaN	NaN	NaN
44.7951789533254	2.01627900870517	2	object_onset	2	stay	0.853814968245462	16	5	11	n/a	NaN	NaN	NaN	NaN	NaN	NaN	NaN	NaN	NaN	NaN	NaN
49.6772994997445	2.016255968716	11	object_onset	1	switch	0.853814968245462	3	100	-97	n/a	NaN	NaN	NaN	NaN	NaN	NaN	NaN	NaN	NaN	NaN	NaN
57.4587690392509	2.01613596896641	2	object_onset	2	switch	0.853814968245462	16	5	11	n/a	NaN	NaN	NaN	NaN	NaN	NaN	NaN	NaN	NaN	NaN	NaN
63.907032178482	2.01627260888927	4	object_onset	2	stay	0.569209978830308	2	14	-12	n/a	NaN	NaN	NaN	NaN	NaN	NaN	NaN	NaN	NaN	NaN	NaN
69.0391525649466	4.23226163396612	4	choice	2	n/a	NaN	NaN	NaN	NaN	d	7	8	1.08747413762351	1.26	0.216144997429269	14.4890326431482	76.3446034913719	29.5679244665883	73.2632551745046	4.22410260955803	1
76.6705702326726	2.0161890888121	9	object_onset	1	switch	0.9	71	19	52	n/a	NaN	NaN	NaN	NaN	NaN	NaN	NaN	NaN	NaN	NaN	NaN
81.8193008271046	2.01614684890956	8	object_onset	2	switch	0.36	16	44	-28	n/a	NaN	NaN	NaN	NaN	NaN	NaN	NaN	NaN	NaN	NaN	NaN
86.4347911651712	4.33226944203489	8	choice	2	n/a	NaN	NaN	NaN	NaN	d	1	11	0.853814968245462	1.27914033631967	83.8378807534661	28.3236873757602	40.5840886391862	42.8345172613902	90.7489512020256	4.31416003685445	1
96.5822318422142	2.01613340899348	2	object_onset	2	stay	1.20747670784989	16	5	11	n/a	NaN	NaN	NaN	NaN	NaN	NaN	NaN	NaN	NaN	NaN	NaN
103.847088293638	2.01599804940633	1	object_onset	1	switch	0.524785670536077	1	44	-43	n/a	NaN	NaN	NaN	NaN	NaN	NaN	NaN	NaN	NaN	NaN	NaN
108.912473768229	2.01615996891633	9	object_onset	2	switch	1.08747413762351	19	71	-52	n/a	NaN	NaN	NaN	NaN	NaN	NaN	NaN	NaN	NaN	NaN	NaN
114.960945355007	2.01601212937385	7	object_onset	2	stay	0.458911756223351	2	90	-88	n/a	NaN	NaN	NaN	NaN	NaN	NaN	NaN	NaN	NaN	NaN	NaN
120.092991181416	2.01616668910719	9	object_onset	2	stay	0.458911756223351	19	71	-52	n/a	NaN	NaN	NaN	NaN	NaN	NaN	NaN	NaN	NaN	NaN	NaN
124.758347983938	5.93194061075337	9	choice	2	n/a	NaN	NaN	NaN	NaN	d	6	3	0.458911756223351	0.648999229583518	5.80500911870512	31.2285063350093	27.2811430344321	59.8748977484675	130.677229419816	5.91888143587857	1
135.255840148777	2.01615292904899	12	object_onset	2	stay	0.458911756223351	72	18	54	n/a	NaN	NaN	NaN	NaN	NaN	NaN	NaN	NaN	NaN	NaN	NaN
141.48756930395	3.28253929759376	12	choice	2	n/a	NaN	NaN	NaN	NaN	d	2	9	0.458911756223351	0.814984662432368	53.3206308004961	56.1629049914503	52.9909262905921	12.9906848652376	144.74957872089	3.26200941693969	1
148.152554267086	2.01618908904493	6	object_onset	2	stay	0.648999229583518	13	44	-31	n/a	NaN	NaN	NaN	NaN	NaN	NaN	NaN	NaN	NaN	NaN	NaN
154.201030014083	2.01615836890414	3	object_onset	2	stay	0.458911756223351	50	11	39	n/a	NaN	NaN	NaN	NaN	NaN	NaN	NaN	NaN	NaN	NaN	NaN
161.332492801594	2.01625532889739	4	object_onset	2	stay	0.763675323681471	2	14	-12	n/a	NaN	NaN	NaN	NaN	NaN	NaN	NaN	NaN	NaN	NaN	NaN
166.56461619609	2.01615612884052	1	object_onset	1	switch	1.08747413762351	1	44	-43	n/a	NaN	NaN	NaN	NaN	NaN	NaN	NaN	NaN	NaN	NaN	NaN
171.879931750707	2.01614012895152	12	object_onset	2	switch	0.763675323681471	72	18	54	n/a	NaN	NaN	NaN	NaN	NaN	NaN	NaN	NaN	NaN	NaN	NaN
178.128217994003	2.0162146887742	3	object_onset	1	switch	0.458911756223351	11	50	-39	n/a	NaN	NaN	NaN	NaN	NaN	NaN	NaN	NaN	NaN	NaN	NaN
183.993521612603	2.01619548886083	10	object_onset	1	stay	0.9	5	50	-45	n/a	NaN	NaN	NaN	NaN	NaN	NaN	NaN	NaN	NaN	NaN	NaN
189.842047663406	2.01619164878502	2	object_onset	2	switch	1.26	16	5	11	n/a	NaN	NaN	NaN	NaN	NaN	NaN	NaN	NaN	NaN	NaN	NaN
195.074094577692	2.01616508909501	7	object_onset	1	switch	1.27914033631967	90	2	88	n/a	NaN	NaN	NaN	NaN	NaN	NaN	NaN	NaN	NaN	NaN	NaN
199.722914772108	3.66575456177816	7	choice	1	n/a	NaN	NaN	NaN	NaN	d	3	6	0.763675323681471	1.08747413762351	46.7766790247836	79.370433738819	11.3101527179681	48.3436681716825	203.379543911433	3.65662913932465	1
207.520929879975	2.01607260899618	10	object_onset	1	stay	1.08747413762351	5	50	-45	n/a	NaN	NaN	NaN	NaN	NaN	NaN	NaN	NaN	NaN	NaN	NaN
213.602722682757	12.2802698619198	10	choice	1	n/a	NaN	NaN	NaN	NaN	d	1	5	1.08747413762351	1.27914033631967	4.13404913999263	65.9816111558298	5.74709315020331	47.6207587871056	225.874702000525	12.2719793177675	1
231.298304067226	2.01603580941446	11	object_onset	2	switch	0.524785670536077	100	3	97	n/a	NaN	NaN	NaN	NaN	NaN	NaN	NaN	NaN	NaN	NaN	NaN
237.313456998207	2.01615580893122	5	object_onset	2	stay	1.20747670784989	3	71	-68	n/a	NaN	NaN	NaN	NaN	NaN	NaN	NaN	NaN	NaN	NaN	NaN
244.011759017594	2.01616508886218	9	object_onset	2	stay	0.524785670536077	19	71	-52	n/a	NaN	NaN	NaN	NaN	NaN	NaN	NaN	NaN	NaN	NaN	NaN
250.976640684996	2.01616412890144	1	object_onset	2	stay	1.08747413762351	44	1	43	n/a	NaN	NaN	NaN	NaN	NaN	NaN	NaN	NaN	NaN	NaN	NaN
256.591886863578	2.01617212896235	5	object_onset	1	switch	1.26	71	3	68	n/a	NaN	NaN	NaN	NaN	NaN	NaN	NaN	NaN	NaN	NaN	NaN
262.390443730401	2.01615548902191	2	object_onset	1	stay	0.853814968245462	5	16	-11	n/a	NaN	NaN	NaN	NaN	NaN	NaN	NaN	NaN	NaN	NaN	NaN
266.789353684522	4.01565980981104	2	choice	1	n/a	NaN	NaN	NaN	NaN	d	11	10	0.853814968245462	1.26	1.88362051778864	1.77635683940025e-15	83.8378807534661	34.0707805259635	270.785491611809	3.99613792728633	1
276.270273401169	2.01619004900567	3	object_onset	1	stay	0.36	11	50	-39	n/a	NaN	NaN	NaN	NaN	NaN	NaN	NaN	NaN	NaN	NaN	NaN
281.702173691941	2.01624860870652	11	object_onset	1	stay	0.524785670536077	3	100	-97	n/a	NaN	NaN	NaN	NaN	NaN	NaN	NaN	NaN	NaN	NaN	NaN
286.634358462179	2.01615644898266	11	object_onset	2	switch	0	100	3	97	n/a	NaN	NaN	NaN	NaN	NaN	NaN	NaN	NaN	NaN	NaN	NaN
291.833024320658	2.01607356918976	6	object_onset	2	stay	0.9	13	44	-31	n/a	NaN	NaN	NaN	NaN	NaN	NaN	NaN	NaN	NaN	NaN	NaN
298.031457539648	2.0161452491302	5	object_onset	2	stay	0.36	3	71	-68	n/a	NaN	NaN	NaN	NaN	NaN	NaN	NaN	NaN	NaN	NaN	NaN
303.046739110257	2.01629788870923	3	object_onset	1	switch	0.814984662432368	11	50	-39	n/a	NaN	NaN	NaN	NaN	NaN	NaN	NaN	NaN	NaN	NaN	NaN
307.962271752534	2.01617564889602	1	object_onset	1	stay	0.458911756223351	1	44	-43	n/a	NaN	NaN	NaN	NaN	NaN	NaN	NaN	NaN	NaN	NaN	NaN
314.543957035756	2.01617468893528	8	object_onset	2	switch	1.27914033631967	16	44	-28	n/a	NaN	NaN	NaN	NaN	NaN	NaN	NaN	NaN	NaN	NaN	NaN
319.592726542149	2.01612604898401	3	object_onset	1	switch	0.9	11	50	-39	n/a	NaN	NaN	NaN	NaN	NaN	NaN	NaN	NaN	NaN	NaN	NaN
325.691185553093	2.01615228899755	8	object_onset	1	stay	0.9	44	16	28	n/a	NaN	NaN	NaN	NaN	NaN	NaN	NaN	NaN	NaN	NaN	NaN
331.922945748083	2.01615260890685	8	object_onset	1	stay	0	44	16	28	n/a	NaN	NaN	NaN	NaN	NaN	NaN	NaN	NaN	NaN	NaN	NaN
337.50489279069	2.01610428909771	9	object_onset	1	stay	0.36	71	19	52	n/a	NaN	NaN	NaN	NaN	NaN	NaN	NaN	NaN	NaN	NaN	NaN
344.119867609814	2.01616732915863	7	object_onset	1	stay	0.458911756223351	90	2	88	n/a	NaN	NaN	NaN	NaN	NaN	NaN	NaN	NaN	NaN	NaN	NaN
351.234635709552	2.01627356885001	12	object_onset	1	stay	0.9	18	72	-54	n/a	NaN	NaN	NaN	NaN	NaN	NaN	NaN	NaN	NaN	NaN	NaN
357.416549280286	2.01612316910177	4	object_onset	2	switch	1.08747413762351	2	14	-12	n/a	NaN	NaN	NaN	NaN	NaN	NaN	NaN	NaN	NaN	NaN	NaN
364.74798480398	2.01618172880262	6	object_onset	2	stay	0.458911756223351	13	44	-31	n/a	NaN	NaN	NaN	NaN	NaN	NaN	NaN	NaN	NaN	NaN	NaN
370.329904006561	2.01619676896371	5	object_onset	1	switch	0.36	71	3	68	n/a	NaN	NaN	NaN	NaN	NaN	NaN	NaN	NaN	NaN	NaN	NaN
376.295095113572	2.01615420891903	2	object_onset	2	switch	0.853814968245462	16	5	11	n/a	NaN	NaN	NaN	NaN	NaN	NaN	NaN	NaN	NaN	NaN	NaN
383.943185389042	2.01610460923985	7	object_onset	2	stay	1.27914033631967	2	90	-88	n/a	NaN	NaN	NaN	NaN	NaN	NaN	NaN	NaN	NaN	NaN	NaN
390.758124624379	2.01615548902191	6	object_onset	1	switch	0.763675323681471	44	13	31	n/a	NaN	NaN	NaN	NaN	NaN	NaN	NaN	NaN	NaN	NaN	NaN
395.9901001791	2.01615324895829	11	object_onset	2	switch	0.9	100	3	97	n/a	NaN	NaN	NaN	NaN	NaN	NaN	NaN	NaN	NaN	NaN	NaN
400.605534837348	6.56511667510495	11	choice	2	n/a	NaN	NaN	NaN	NaN	d	12	1	0.569209978830308	0.36	55.5141933777059	27.6749757620158	2.25042862220399	14.8743053830263	407.151101789903	6.54556695255451	-1
410.436493562069	2.01614940888248	10	object_onset	1	switch	0.524785670536077	5	50	-45	n/a	NaN	NaN	NaN	NaN	NaN	NaN	NaN	NaN	NaN	NaN	NaN
416.251692316728	2.01616124901921	7	object_onset	2	switch	1.08747413762351	2	90	-88	n/a	NaN	NaN	NaN	NaN	NaN	NaN	NaN	NaN	NaN	NaN	NaN
421.516993247438	2.0161730889231	4	object_onset	1	switch	1.08747413762351	14	2	12	n/a	NaN	NaN	NaN	NaN	NaN	NaN	NaN	NaN	NaN	NaN	NaN
427.032274818048	2.01606716914102	3	object_onset	2	switch	0.763675323681471	50	11	39	n/a	NaN	NaN	NaN	NaN	NaN	NaN	NaN	NaN	NaN	NaN	NaN
432.480901796836	2.01615932886489	4	object_onset	1	switch	0.763675323681471	14	2	12	n/a	NaN	NaN	NaN	NaN	NaN	NaN	NaN	NaN	NaN	NaN	NaN
438.512723495718	2.01619228883646	9	object_onset	2	switch	0.9	19	71	-52	n/a	NaN	NaN	NaN	NaN	NaN	NaN	NaN	NaN	NaN	NaN	NaN
444.611193706514	2.01617180905305	2	object_onset	1	switch	0.9	5	16	-11	n/a	NaN	NaN	NaN	NaN	NaN	NaN	NaN	NaN	NaN	NaN	NaN
450.243096493417	2.01616028882563	8	object_onset	2	switch	1.20747670784989	16	44	-28	n/a	NaN	NaN	NaN	NaN	NaN	NaN	NaN	NaN	NaN	NaN	NaN
456.674815024482	2.01616220897995	8	object_onset	2	stay	0	16	44	-28	n/a	NaN	NaN	NaN	NaN	NaN	NaN	NaN	NaN	NaN	NaN	NaN
463.123086483683	2.01624924875796	4	object_onset	2	stay	1.26	2	14	-12	n/a	NaN	NaN	NaN	NaN	NaN	NaN	NaN	NaN	NaN	NaN	NaN
470.637996855192	2.01613404904492	6	object_onset	1	switch	0.458911756223351	44	13	31	n/a	NaN	NaN	NaN	NaN	NaN	NaN	NaN	NaN	NaN	NaN	NaN
475.803238137858	2.01627964875661	10	object_onset	1	stay	1.08747413762351	5	50	-45	n/a	NaN	NaN	NaN	NaN	NaN	NaN	NaN	NaN	NaN	NaN	NaN
482.135063100839	2.01620252872817	11	object_onset	1	stay	0.524785670536077	3	100	-97	n/a	NaN	NaN	NaN	NaN	NaN	NaN	NaN	NaN	NaN	NaN	NaN
489.933100288501	2.01618844899349	10	object_onset	2	switch	0.524785670536077	50	5	45	n/a	NaN	NaN	NaN	NaN	NaN	NaN	NaN	NaN	NaN	NaN	NaN
496.931345411809	2.73267219332047	10	choice	2	n/a	NaN	NaN	NaN	NaN	d	4	3	0.9	1.53792067415716	2.1316282072803e-14	48.5598131691118	6.10671340736224	9.13254365480929	499.64638979896	2.71504438715056	1
504.995976007776	2.01616188907064	8	object_onset	1	switch	0.569209978830308	44	16	28	n/a	NaN	NaN	NaN	NaN	NaN	NaN	NaN	NaN	NaN	NaN	NaN
510.877853674581	2.01616252888925	4	object_onset	1	stay	1.26	14	2	12	n/a	NaN	NaN	NaN	NaN	NaN	NaN	NaN	NaN	NaN	NaN	NaN
515.809939244995	2.01615836890414	2	object_onset	2	switch	0.569209978830308	16	5	11	n/a	NaN	NaN	NaN	NaN	NaN	NaN	NaN	NaN	NaN	NaN	NaN
520.941953391535	18.4453469850123	2	choice	2	n/a	NaN	NaN	NaN	NaN	d	7	11	1.27914033631967	0.853814968245462	14.272887645719	83.8378807534661	85.4771471461812	1.88362051778864	539.381519267568	18.4395658760332	-1
544.735880187247	2.01623516879044	2	object_onset	1	switch	0	5	16	-11	n/a	NaN	NaN	NaN	NaN	NaN	NaN	NaN	NaN	NaN	NaN	NaN
550.751142237801	2.01615996914916	4	object_onset	1	stay	0.569209978830308	14	2	12	n/a	NaN	NaN	NaN	NaN	NaN	NaN	NaN	NaN	NaN	NaN	NaN
555.899839232443	2.01615612884052	5	object_onset	2	switch	0.524785670536077	3	71	-68	n/a	NaN	NaN	NaN	NaN	NaN	NaN	NaN	NaN	NaN	NaN	NaN
561.815027235309	2.01614972879179	7	object_onset	2	stay	0.569209978830308	2	90	-88	n/a	NaN	NaN	NaN	NaN	NaN	NaN	NaN	NaN	NaN	NaN	NaN
566.797097349539	6.26496621128172	7	choice	2	n/a	NaN	NaN	NaN	NaN	d	2	8	0.524785670536077	1.27914033631967	14.272887645719	14.272887645719	46.7766790247836	85.4771471461812	573.041150641162	6.24405329162255	1
577.577644651057	2.0162342088297	8	object_onset	1	switch	0.524785670536077	44	16	28	n/a	NaN	NaN	NaN	NaN	NaN	NaN	NaN	NaN	NaN	NaN	NaN
582.893006605562	2.01609148900025	9	object_onset	2	switch	0.36	19	71	-52	n/a	NaN	NaN	NaN	NaN	NaN	NaN	NaN	NaN	NaN	NaN	NaN
588.308322608005	2.01613628910854	3	object_onset	1	switch	0.648999229583518	11	50	-39	n/a	NaN	NaN	NaN	NaN	NaN	NaN	NaN	NaN	NaN	NaN	NaN
594.906684979331	2.01611932902597	6	object_onset	1	stay	0.458911756223351	44	13	31	n/a	NaN	NaN	NaN	NaN	NaN	NaN	NaN	NaN	NaN	NaN	NaN
600.571924342075	2.0161577288527	7	object_onset	1	stay	0.763675323681471	90	2	88	n/a	NaN	NaN	NaN	NaN	NaN	NaN	NaN	NaN	NaN	NaN	NaN
606.020532120718	2.01616924884729	7	object_onset	2	switch	0	2	90	-88	n/a	NaN	NaN	NaN	NaN	NaN	NaN	NaN	NaN	NaN	NaN	NaN
613.651958748233	2.01615932909772	11	object_onset	2	stay	1.26	100	3	97	n/a	NaN	NaN	NaN	NaN	NaN	NaN	NaN	NaN	NaN	NaN	NaN
620.60017036763	2.01617020904087	12	object_onset	1	switch	0.36	18	72	-54	n/a	NaN	NaN	NaN	NaN	NaN	NaN	NaN	NaN	NaN	NaN	NaN
625.032282178057	4.13242566585541	12	choice	1	n/a	NaN	NaN	NaN	NaN	d	3	5	0.458911756223351	0.9	6.8839714578754	52.9909262905921	22.0921244654867	69.7128832525924	629.159524493851	4.12724231579341	1
632.813775077695	2.01613916899078	10	object_onset	2	switch	0.458911756223351	50	5	45	n/a	NaN	NaN	NaN	NaN	NaN	NaN	NaN	NaN	NaN	NaN	NaN
638.762278216425	2.01617916906253	3	object_onset	1	switch	0.9	11	50	-39	n/a	NaN	NaN	NaN	NaN	NaN	NaN	NaN	NaN	NaN	NaN	NaN
643.127897354541	6.93155085132457	3	choice	1	n/a	NaN	NaN	NaN	NaN	d	9	12	0.458911756223351	0.648999229583518	6.8839714578754	59.8748977484675	22.0921244654867	31.2285063350093	650.053286617855	6.92538926331326	1
653.325259215664	2.01616060896777	4	object_onset	2	switch	0.763675323681471	2	14	-12	n/a	NaN	NaN	NaN	NaN	NaN	NaN	NaN	NaN	NaN	NaN	NaN
658.923843346303	2.01617212896235	7	object_onset	1	switch	1.08747413762351	90	2	88	n/a	NaN	NaN	NaN	NaN	NaN	NaN	NaN	NaN	NaN	NaN	NaN
665.788826965494	2.01603260915726	5	object_onset	1	stay	0.569209978830308	71	3	68	n/a	NaN	NaN	NaN	NaN	NaN	NaN	NaN	NaN	NaN	NaN	NaN
670.670926071936	2.01603388926014	9	object_onset	1	stay	0.524785670536077	71	19	52	n/a	NaN	NaN	NaN	NaN	NaN	NaN	NaN	NaN	NaN	NaN	NaN
677.452431451296	2.01625052886084	3	object_onset	2	switch	0.648999229583518	50	11	39	n/a	NaN	NaN	NaN	NaN	NaN	NaN	NaN	NaN	NaN	NaN	NaN
682.651218589628	2.01615836913697	12	object_onset	2	stay	0.458911756223351	72	18	54	n/a	NaN	NaN	NaN	NaN	NaN	NaN	NaN	NaN	NaN	NaN	NaN
688.866314496845	2.01615676889196	5	object_onset	2	stay	0.9	3	71	-68	n/a	NaN	NaN	NaN	NaN	NaN	NaN	NaN	NaN	NaN	NaN	NaN
693.864935619291	6.18192445090972	5	choice	2	n/a	NaN	NaN	NaN	NaN	d	6	2	0.36	0.853814968245462	10.5872433333912	13.5499782611421	27.2811430344322	65.9816111558298	700.042193518952	6.17725789966062	1
703.196029703598	2.01615356910042	1	object_onset	2	stay	1.26	44	1	43	n/a	NaN	NaN	NaN	NaN	NaN	NaN	NaN	NaN	NaN	NaN	NaN
708.861316106282	2.01606012927368	10	object_onset	1	switch	1.08747413762351	5	50	-45	n/a	NaN	NaN	NaN	NaN	NaN	NaN	NaN	NaN	NaN	NaN	NaN
714.159842573106	2.0161670090165	6	object_onset	1	stay	1.08747413762351	44	13	31	n/a	NaN	NaN	NaN	NaN	NaN	NaN	NaN	NaN	NaN	NaN	NaN
719.725116687827	2.01627068873495	12	object_onset	2	switch	0.648999229583518	72	18	54	n/a	NaN	NaN	NaN	NaN	NaN	NaN	NaN	NaN	NaN	NaN	NaN
726.706807602895	2.01613052911125	8	object_onset	2	stay	0.524785670536077	16	44	-28	n/a	NaN	NaN	NaN	NaN	NaN	NaN	NaN	NaN	NaN	NaN	NaN
732.172059189761	2.01616604882292	6	object_onset	2	stay	0.814984662432368	13	44	-31	n/a	NaN	NaN	NaN	NaN	NaN	NaN	NaN	NaN	NaN	NaN	NaN
739.836807353422	2.01618460891768	6	object_onset	1	switch	0	44	13	31	n/a	NaN	NaN	NaN	NaN	NaN	NaN	NaN	NaN	NaN	NaN	NaN
745.052176219877	2.01614268892445	7	object_onset	2	switch	0.763675323681471	2	90	-88	n/a	NaN	NaN	NaN	NaN	NaN	NaN	NaN	NaN	NaN	NaN	NaN
750.684074526653	2.01618716889061	1	object_onset	1	switch	1.53792067415716	1	44	-43	n/a	NaN	NaN	NaN	NaN	NaN	NaN	NaN	NaN	NaN	NaN	NaN
757.099149889778	9.99745632475242	1	choice	1	n/a	NaN	NaN	NaN	NaN	d	9	10	1.08747413762351	1.08747413762351	4.13404913999263	70.1156602958224	5.74709315020331	25.481413184806	767.085299036233	9.98614914645441	1
771.812111400766	2.01615292904899	6	object_onset	2	switch	0.9	13	44	-31	n/a	NaN	NaN	NaN	NaN	NaN	NaN	NaN	NaN	NaN	NaN	NaN
776.044285355136	5.14878467423841	6	choice	2	n/a	NaN	NaN	NaN	NaN	d	10	4	0.458911756223351	1.08747413762351	11.5262977153973	37.0335154537144	29.5679244665883	38.7004681213976	781.184900125023	5.14061476988718	1
784.308839727193	2.01627164869569	9	object_onset	2	stay	0.458911756223351	19	71	-52	n/a	NaN	NaN	NaN	NaN	NaN	NaN	NaN	NaN	NaN	NaN	NaN
790.657356177922	2.01613212912343	10	object_onset	2	stay	0.763675323681471	50	5	45	n/a	NaN	NaN	NaN	NaN	NaN	NaN	NaN	NaN	NaN	NaN	NaN
797.138920373283	2.01627228874713	2	object_onset	1	switch	1.26	5	16	-11	n/a	NaN	NaN	NaN	NaN	NaN	NaN	NaN	NaN	NaN	NaN	NaN
803.337469752179	2.01615516887978	1	object_onset	2	switch	0.524785670536077	44	1	43	n/a	NaN	NaN	NaN	NaN	NaN	NaN	NaN	NaN	NaN	NaN	NaN
809.502614715137	2.01603516913019	7	object_onset	1	switch	1.53792067415716	90	2	88	n/a	NaN	NaN	NaN	NaN	NaN	NaN	NaN	NaN	NaN	NaN	NaN
815.251162397908	2.01615964900702	11	object_onset	2	switch	1.26	100	3	97	n/a	NaN	NaN	NaN	NaN	NaN	NaN	NaN	NaN	NaN	NaN	NaN
820.766409728676	2.01618364872411	8	object_onset	1	switch	0.853814968245462	44	16	28	n/a	NaN	NaN	NaN	NaN	NaN	NaN	NaN	NaN	NaN	NaN	NaN
827.948010339867	2.01612092903815	12	object_onset	1	stay	0.524785670536077	18	72	-54	n/a	NaN	NaN	NaN	NaN	NaN	NaN	NaN	NaN	NaN	NaN	NaN
832.896748678293	2.01610140921548	11	object_onset	1	stay	0.36	3	100	-97	n/a	NaN	NaN	NaN	NaN	NaN	NaN	NaN	NaN	NaN	NaN	NaN
837.762160456739	2.0160684492439	4	object_onset	1	stay	1.27914033631967	14	2	12	n/a	NaN	NaN	NaN	NaN	NaN	NaN	NaN	NaN	NaN	NaN	NaN
843.910468972055	3.0826555211097	4	choice	1	n/a	NaN	NaN	NaN	NaN	d	5	12	0.524785670536077	1.08747413762351	56.8490675010205	3.85814121042835	0.93905438200614	70.6519376345985	846.987350744428	3.07688177237287	1
852.325126415817	2.01619164901786	9	object_onset	1	stay	0.9	71	19	52	n/a	NaN	NaN	NaN	NaN	NaN	NaN	NaN	NaN	NaN	NaN	NaN
858.673555506859	3.99899872182868	9	choice	1	n/a	NaN	NaN	NaN	NaN	d	12	7	0.458911756223351	0.458911756223351	19.4955359903515	52.9909262905921	17.1151618366732	53.3206308004961	862.656104340451	3.98254883359186	1
868.054525975371	2.01615580893122	1	object_onset	2	switch	1.08747413762351	44	1	43	n/a	NaN	NaN	NaN	NaN	NaN	NaN	NaN	NaN	NaN	NaN	NaN
872.220135897398	5.18203645059839	1	choice	2	n/a	NaN	NaN	NaN	NaN	d	4	7	1.08747413762351	1.53792067415716	42.8127200189084	42.5965750214792	13.2665927948019	89.6111962861739	877.38349942374	5.16336352634244	1
880.634683901444	2.01617020904087	9	object_onset	1	switch	1.08747413762351	71	19	52	n/a	NaN	NaN	NaN	NaN	NaN	NaN	NaN	NaN	NaN	NaN	NaN
885.733379712095	2.01606588903815	12	object_onset	2	switch	0.458911756223351	72	18	54	n/a	NaN	NaN	NaN	NaN	NaN	NaN	NaN	NaN	NaN	NaN	NaN
891.765221890761	2.01616988913156	12	object_onset	2	stay	0	72	18	54	n/a	NaN	NaN	NaN	NaN	NaN	NaN	NaN	NaN	NaN	NaN	NaN
897.647031717701	2.01615516911261	3	object_onset	2	stay	0.458911756223351	50	11	39	n/a	NaN	NaN	NaN	NaN	NaN	NaN	NaN	NaN	NaN	NaN	NaN
904.695264905225	2.01615516887978	9	object_onset	1	switch	0.648999229583518	71	19	52	n/a	NaN	NaN	NaN	NaN	NaN	NaN	NaN	NaN	NaN	NaN	NaN
911.510240620468	2.01615548902191	10	object_onset	2	switch	0.763675323681471	50	5	45	n/a	NaN	NaN	NaN	NaN	NaN	NaN	NaN	NaN	NaN	NaN	NaN
917.042078639381	2.01625724858604	10	object_onset	2	stay	0	50	5	45	n/a	NaN	NaN	NaN	NaN	NaN	NaN	NaN	NaN	NaN	NaN	NaN
924.706920242868	2.01615708880126	11	object_onset	1	switch	0.524785670536077	3	100	-97	n/a	NaN	NaN	NaN	NaN	NaN	NaN	NaN	NaN	NaN	NaN	NaN
930.372149045579	10.8305843251292	11	choice	1	n/a	NaN	NaN	NaN	NaN	d	8	9	0.853814968245462	0.814984662432368	40.5840886391862	67.8652316736184	83.8378807534661	80.9956065625119	941.185911323177	10.8137622775976	-1
945.868253692985	2.01600828929804	8	object_onset	2	switch	0.853814968245462	16	44	-28	n/a	NaN	NaN	NaN	NaN	NaN	NaN	NaN	NaN	NaN	NaN	NaN
950.733693631366	2.01618524896912	11	object_onset	1	switch	0.853814968245462	3	100	-97	n/a	NaN	NaN	NaN	NaN	NaN	NaN	NaN	NaN	NaN	NaN	NaN
956.46558438614	2.01615420891903	1	object_onset	1	stay	0.569209978830308	1	44	-43	n/a	NaN	NaN	NaN	NaN	NaN	NaN	NaN	NaN	NaN	NaN	NaN
961.914204004686	2.01615996914916	1	object_onset	2	switch	0	44	1	43	n/a	NaN	NaN	NaN	NaN	NaN	NaN	NaN	NaN	NaN	NaN	NaN
967.529374023667	2.01620284887031	4	object_onset	1	switch	1.08747413762351	14	2	12	n/a	NaN	NaN	NaN	NaN	NaN	NaN	NaN	NaN	NaN	NaN	NaN
973.57793617039	2.0161513290368	12	object_onset	1	stay	1.08747413762351	18	72	-54	n/a	NaN	NaN	NaN	NaN	NaN	NaN	NaN	NaN	NaN	NaN	NaN
980.076303853653	2.01616316894069	12	object_onset	1	stay	0	18	72	-54	n/a	NaN	NaN	NaN	NaN	NaN	NaN	NaN	NaN	NaN	NaN	NaN
986.574632816715	2.01621852885	6	object_onset	2	switch	0.648999229583518	13	44	-31	n/a	NaN	NaN	NaN	NaN	NaN	NaN	NaN	NaN	NaN	NaN	NaN
991.606735795038	2.01600316935219	11	object_onset	2	stay	0.9	100	3	97	n/a	NaN	NaN	NaN	NaN	NaN	NaN	NaN	NaN	NaN	NaN	NaN
997.022038997849	2.01615164894611	3	object_onset	2	stay	0.524785670536077	50	11	39	n/a	NaN	NaN	NaN	NaN	NaN	NaN	NaN	NaN	NaN	NaN	NaN
1003.13715941668	2.01615772908553	12	object_onset	1	switch	0.458911756223351	18	72	-54	n/a	NaN	NaN	NaN	NaN	NaN	NaN	NaN	NaN	NaN	NaN	NaN
1010.38533814019	2.01600572932512	5	object_onset	2	switch	0.9	3	71	-68	n/a	NaN	NaN	NaN	NaN	NaN	NaN	NaN	NaN	NaN	NaN	NaN
1016.8503420474	2.01615900895558	4	object_onset	2	stay	0.524785670536077	2	14	-12	n/a	NaN	NaN	NaN	NaN	NaN	NaN	NaN	NaN	NaN	NaN	NaN
1022.84883069037	2.0161890888121	5	object_onset	1	switch	0.524785670536077	71	3	68	n/a	NaN	NaN	NaN	NaN	NaN	NaN	NaN	NaN	NaN	NaN	NaN
1028.59741485305	3.61575113772415	5	choice	1	n/a	NaN	NaN	NaN	NaN	d	8	4	0.524785670536077	0.853814968245462	56.8490675010205	27.2811430344322	0.93905438200614	13.5499782611421	1032.19649434276	3.59907948970795	1
1036.62871207297	2.01615900895558	5	object_onset	1	stay	0	71	3	68	n/a	NaN	NaN	NaN	NaN	NaN	NaN	NaN	NaN	NaN	NaN	NaN
1041.7107336754	2.01617116900161	10	object_onset	2	switch	1.27914033631967	50	5	45	n/a	NaN	NaN	NaN	NaN	NaN	NaN	NaN	NaN	NaN	NaN	NaN
1046.92612814181	2.01606332929805	5	object_onset	1	switch	1.27914033631967	71	3	68	n/a	NaN	NaN	NaN	NaN	NaN	NaN	NaN	NaN	NaN	NaN	NaN
1054.32425281755	2.01613532891497	7	object_onset	1	stay	0.569209978830308	90	2	88	n/a	NaN	NaN	NaN	NaN	NaN	NaN	NaN	NaN	NaN	NaN	NaN
1061.42238926911	2.01625724881887	8	object_onset	1	stay	0.524785670536077	44	16	28	n/a	NaN	NaN	NaN	NaN	NaN	NaN	NaN	NaN	NaN	NaN	NaN
1065.8046317352	3.04926678538322	8	choice	1	n/a	NaN	NaN	NaN	NaN	d	10	2	0.569209978830308	1.20747670784989	38.7004681213976	38.7004681213976	34.0707805259635	0	1068.8356614355	3.03102970030159	1
1072.93623852241	2.01615964900702	2	object_onset	1	stay	1.20747670784989	5	16	-11	n/a	NaN	NaN	NaN	NaN	NaN	NaN	NaN	NaN	NaN	NaN	NaN
1079.51808444527	2.01583708962426	3	object_onset	2	switch	0.36	50	11	39	n/a	NaN	NaN	NaN	NaN	NaN	NaN	NaN	NaN	NaN	NaN	NaN
1084.56663283217	4.73214899422601	3	choice	2	n/a	NaN	NaN	NaN	NaN	d	5	6	0.458911756223351	0.814984662432368	37.0335154537144	47.6207587871056	32.5937547140354	59.8748977484675	1089.28575241147	4.71911957929842	1
1093.68100637244	2.01617116900161	10	object_onset	1	switch	0.9	5	50	-45	n/a	NaN	NaN	NaN	NaN	NaN	NaN	NaN	NaN	NaN	NaN	NaN
1099.76270861574	2.01626140880398	2	object_onset	1	stay	1.26	5	16	-11	n/a	NaN	NaN	NaN	NaN	NaN	NaN	NaN	NaN	NaN	NaN	NaN
