onset	duration	object	trial_type	map	stayswitch	distance	value	counterfactual_value	value_diff	choicetype	object1	object2	chosen_distance	unchosen_distance	chosen_value	unchosen_value	counterfactual_chosen_value	counterfactual_unchosen_value	button	response_time	cr
8.776755948551	2.01620156900026	2	object_onset	1	n/a	NaN	NaN	NaN	NaN	n/a	NaN	NaN	NaN	NaN	NaN	NaN	NaN	NaN	NaN	NaN	NaN
14.6586534553207	3.03253625752404	2	choice	1	n/a	NaN	NaN	NaN	NaN	d	1	10	0.524785670536077	1.26	4.13404913999263	1.77635683940025e-15	28.3236873757602	34.0707805259635	17.6747273444198	3.01607388909906	1
21.8068106109276	2.01616316894069	3	object_onset	2	switch	0.36	50	11	39	n/a	NaN	NaN	NaN	NaN	NaN	NaN	NaN	NaN	NaN	NaN	NaN
27.4722832532134	2.01596060930751	2	object_onset	2	stay	0.36	16	5	11	n/a	NaN	NaN	NaN	NaN	NaN	NaN	NaN	NaN	NaN	NaN	NaN
34.5202854010276	2.01607644907199	8	object_onset	1	switch	1.20747670784989	44	16	28	n/a	NaN	NaN	NaN	NaN	NaN	NaN	NaN	NaN	NaN	NaN	NaN
39.8356089554727	2.0162441288121	7	object_onset	2	switch	0.524785670536077	2	90	-88	n/a	NaN	NaN	NaN	NaN	NaN	NaN	NaN	NaN	NaN	NaN	NaN
45.1509849899448	2.01613308908418	8	object_onset	1	switch	0.524785670536077	44	16	28	n/a	NaN	NaN	NaN	NaN	NaN	NaN	NaN	NaN	NaN	NaN	NaN
50.2163154245354	2.01616252912208	2	object_onset	1	stay	1.20747670784989	5	16	-11	n/a	NaN	NaN	NaN	NaN	NaN	NaN	NaN	NaN	NaN	NaN	NaN
57.9143252845388	2.01625532866456	7	object_onset	1	stay	1.27914033631967	90	2	88	n/a	NaN	NaN	NaN	NaN	NaN	NaN	NaN	NaN	NaN	NaN	NaN
64.9792969997507	2.01616892893799	12	object_onset	1	stay	0.9	18	72	-54	n/a	NaN	NaN	NaN	NaN	NaN	NaN	NaN	NaN	NaN	NaN	NaN
69.5114892579149	2.08282192097977	12	choice	1	n/a	NaN	NaN	NaN	NaN	d	8	1	0.524785670536077	0.763675323681471	25.7097832561599	17.1247340052303	56.1629049914503	27.8392176156901	71.5657803537324	2.05429109581746	1
75.0434111165814	2.01615036907606	3	object_onset	2	switch	0.458911756223351	50	11	39	n/a	NaN	NaN	NaN	NaN	NaN	NaN	NaN	NaN	NaN	NaN	NaN
79.9255444628652	10.9638906293549	3	choice	2	n/a	NaN	NaN	NaN	NaN	d	2	9	0.36	0.648999229583518	34.0707805259635	31.2285063350093	6.10671340736224	59.8748977484675	90.8778053545393	10.9522608916741	1
96.6713203110266	2.01615452906117	9	object_onset	2	stay	0.648999229583518	19	71	-52	n/a	NaN	NaN	NaN	NaN	NaN	NaN	NaN	NaN	NaN	NaN	NaN
102.469852217706	2.01616284903139	11	object_onset	2	stay	0.814984662432368	100	3	97	n/a	NaN	NaN	NaN	NaN	NaN	NaN	NaN	NaN	NaN	NaN	NaN
107.935009084642	2.01626012893394	4	object_onset	2	stay	1.27914033631967	2	14	-12	n/a	NaN	NaN	NaN	NaN	NaN	NaN	NaN	NaN	NaN	NaN	NaN
113.133803582983	2.0161986888852	2	object_onset	1	switch	0.569209978830308	5	16	-11	n/a	NaN	NaN	NaN	NaN	NaN	NaN	NaN	NaN	NaN	NaN	NaN
119.648838434136	2.01618588902056	6	object_onset	1	stay	0.524785670536077	44	13	31	n/a	NaN	NaN	NaN	NaN	NaN	NaN	NaN	NaN	NaN	NaN	NaN
124.747558884555	2.01613788912073	7	object_onset	2	switch	0.763675323681471	2	90	-88	n/a	NaN	NaN	NaN	NaN	NaN	NaN	NaN	NaN	NaN	NaN	NaN
129.829662086908	2.01609852910042	2	object_onset	2	stay	1.27914033631967	16	5	11	n/a	NaN	NaN	NaN	NaN	NaN	NaN	NaN	NaN	NaN	NaN	NaN
137.311078762636	2.01616060896777	6	object_onset	1	switch	0.524785670536077	44	13	31	n/a	NaN	NaN	NaN	NaN	NaN	NaN	NaN	NaN	NaN	NaN	NaN
143.309533485677	2.0161830089055	7	object_onset	1	stay	0.763675323681471	90	2	88	n/a	NaN	NaN	NaN	NaN	NaN	NaN	NaN	NaN	NaN	NaN	NaN
148.991440656362	2.01618172903545	5	object_onset	1	stay	0.569209978830308	71	3	68	n/a	NaN	NaN	NaN	NaN	NaN	NaN	NaN	NaN	NaN	NaN	NaN
155.973048691638	2.01612380915321	4	object_onset	2	switch	0.524785670536077	2	14	-12	n/a	NaN	NaN	NaN	NaN	NaN	NaN	NaN	NaN	NaN	NaN	NaN
162.471377974842	2.0161574089434	9	object_onset	2	stay	0.9	19	71	-52	n/a	NaN	NaN	NaN	NaN	NaN	NaN	NaN	NaN	NaN	NaN	NaN
168.303277177736	2.0161222089082	12	object_onset	1	switch	0.458911756223351	18	72	-54	n/a	NaN	NaN	NaN	NaN	NaN	NaN	NaN	NaN	NaN	NaN	NaN
173.818519068416	2.0161478088703	8	object_onset	2	switch	0.524785670536077	16	44	-28	n/a	NaN	NaN	NaN	NaN	NaN	NaN	NaN	NaN	NaN	NaN	NaN
178.833947198698	2.01616412890144	10	object_onset	2	stay	0.569209978830308	50	5	45	n/a	NaN	NaN	NaN	NaN	NaN	NaN	NaN	NaN	NaN	NaN	NaN
184.849064929644	2.01616124901921	9	object_onset	2	stay	0.763675323681471	19	71	-52	n/a	NaN	NaN	NaN	NaN	NaN	NaN	NaN	NaN	NaN	NaN	NaN
190.31435811636	2.01615676889196	10	object_onset	2	stay	0.763675323681471	50	5	45	n/a	NaN	NaN	NaN	NaN	NaN	NaN	NaN	NaN	NaN	NaN	NaN
194.446558182593	10.7473982449155	10	choice	2	n/a	NaN	NaN	NaN	NaN	d	4	5	1.27914033631967	1.53792067415716	47.6207587871056	48.5598131691118	65.9816111558298	9.13254365480929	205.176380781224	10.7298225986306	1
208.97631684551	2.01615932886489	3	object_onset	2	stay	0.9	50	11	39	n/a	NaN	NaN	NaN	NaN	NaN	NaN	NaN	NaN	NaN	NaN	NaN
214.40831985604	2.01616700878367	1	object_onset	1	switch	0.458911756223351	1	44	-43	n/a	NaN	NaN	NaN	NaN	NaN	NaN	NaN	NaN	NaN	NaN	NaN
218.957172562135	3.14921539346687	1	choice	1	n/a	NaN	NaN	NaN	NaN	d	4	7	1.08747413762351	1.53792067415716	13.2665927948019	89.6111962861739	42.8127200189084	42.5965750214792	222.09208174306	3.1349091809243	1
227.804917494534	2.01615804899484	3	object_onset	1	stay	0.458911756223351	11	50	-39	n/a	NaN	NaN	NaN	NaN	NaN	NaN	NaN	NaN	NaN	NaN	NaN
235.453025370138	2.0160332492087	7	object_onset	2	switch	1.08747413762351	2	90	-88	n/a	NaN	NaN	NaN	NaN	NaN	NaN	NaN	NaN	NaN	NaN	NaN
242.734492349671	2.01614236901514	12	object_onset	1	switch	0.9	18	72	-54	n/a	NaN	NaN	NaN	NaN	NaN	NaN	NaN	NaN	NaN	NaN	NaN
248.149793952238	2.01618940895423	10	object_onset	1	stay	0.458911756223351	5	50	-45	n/a	NaN	NaN	NaN	NaN	NaN	NaN	NaN	NaN	NaN	NaN	NaN
255.447952419752	2.01618972909637	4	object_onset	2	switch	1.53792067415716	2	14	-12	n/a	NaN	NaN	NaN	NaN	NaN	NaN	NaN	NaN	NaN	NaN	NaN
261.496424966725	2.01615612907335	1	object_onset	2	stay	1.08747413762351	44	1	43	n/a	NaN	NaN	NaN	NaN	NaN	NaN	NaN	NaN	NaN	NaN	NaN
267.761515977792	2.01604348933324	3	object_onset	1	switch	0.458911756223351	11	50	-39	n/a	NaN	NaN	NaN	NaN	NaN	NaN	NaN	NaN	NaN	NaN	NaN
272.576969772112	5.6652352027595	3	choice	1	n/a	NaN	NaN	NaN	NaN	d	12	9	0.458911756223351	0.648999229583518	6.8839714578754	59.8748977484675	22.0921244654867	31.2285063350093	278.23288947274	5.65591970062815	1
282.107940912712	2.0161513290368	11	object_onset	2	switch	0.524785670536077	100	3	97	n/a	NaN	NaN	NaN	NaN	NaN	NaN	NaN	NaN	NaN	NaN	NaN
289.755969108548	2.01619580877014	8	object_onset	2	stay	0.853814968245462	16	44	-28	n/a	NaN	NaN	NaN	NaN	NaN	NaN	NaN	NaN	NaN	NaN	NaN
294.088237910531	2.79931398527697	8	choice	2	n/a	NaN	NaN	NaN	NaN	d	2	10	0.569209978830308	1.20747670784989	34.0707805259635	0	38.7004681213976	38.7004681213976	296.881500707474	2.79326279694214	1
302.286174490582	2.01616700878367	11	object_onset	1	switch	0.853814968245462	3	100	-97	n/a	NaN	NaN	NaN	NaN	NaN	NaN	NaN	NaN	NaN	NaN	NaN
308.667874557665	2.0161577288527	11	object_onset	2	switch	0	100	3	97	n/a	NaN	NaN	NaN	NaN	NaN	NaN	NaN	NaN	NaN	NaN	NaN
315.899375873152	2.01616188883781	11	object_onset	2	stay	0	100	3	97	n/a	NaN	NaN	NaN	NaN	NaN	NaN	NaN	NaN	NaN	NaN	NaN
321.048121507512	2.01615260890685	1	object_onset	2	stay	0.569209978830308	44	1	43	n/a	NaN	NaN	NaN	NaN	NaN	NaN	NaN	NaN	NaN	NaN	NaN
325.963551429799	2.01615868904628	10	object_onset	1	switch	1.08747413762351	5	50	-45	n/a	NaN	NaN	NaN	NaN	NaN	NaN	NaN	NaN	NaN	NaN	NaN
333.578268329613	2.01610428909771	8	object_onset	1	stay	0.569209978830308	44	16	28	n/a	NaN	NaN	NaN	NaN	NaN	NaN	NaN	NaN	NaN	NaN	NaN
339.776709228754	2.01615932886489	8	object_onset	1	stay	0	44	16	28	n/a	NaN	NaN	NaN	NaN	NaN	NaN	NaN	NaN	NaN	NaN	NaN
345.691942991456	2.01614332897589	6	object_onset	1	stay	0.814984662432368	44	13	31	n/a	NaN	NaN	NaN	NaN	NaN	NaN	NaN	NaN	NaN	NaN	NaN
351.00724030612	11.780365221668	6	choice	1	n/a	NaN	NaN	NaN	NaN	d	3	7	0.458911756223351	0.763675323681471	32.5937547140354	46.7766790247836	37.0335154537144	11.3101527179681	362.772345717065	11.7651054109447	1
367.103185081854	2.01612796890549	5	object_onset	1	stay	0.36	71	3	68	n/a	NaN	NaN	NaN	NaN	NaN	NaN	NaN	NaN	NaN	NaN	NaN
374.767912125448	2.01616124901921	1	object_onset	2	switch	1.26	44	1	43	n/a	NaN	NaN	NaN	NaN	NaN	NaN	NaN	NaN	NaN	NaN	NaN
379.716673183953	10.1640998448711	1	choice	2	n/a	NaN	NaN	NaN	NaN	d	6	5	0.9	1.26	31.2864223035111	41.8736656369023	42.8345172613902	70.1156602958224	389.874847280327	10.1581740963738	1
394.146333478857	2.01622460898943	1	object_onset	1	switch	0	1	44	-43	n/a	NaN	NaN	NaN	NaN	NaN	NaN	NaN	NaN	NaN	NaN	NaN
401.111257066252	2.01616028905846	10	object_onset	2	switch	1.08747413762351	50	5	45	n/a	NaN	NaN	NaN	NaN	NaN	NaN	NaN	NaN	NaN	NaN	NaN
406.259986060672	2.01618716889061	12	object_onset	2	stay	0.458911756223351	72	18	54	n/a	NaN	NaN	NaN	NaN	NaN	NaN	NaN	NaN	NaN	NaN	NaN
411.275393391261	2.01615452882834	5	object_onset	2	stay	0.9	3	71	-68	n/a	NaN	NaN	NaN	NaN	NaN	NaN	NaN	NaN	NaN	NaN	NaN
415.674186225515	8.28123498009518	5	choice	2	n/a	NaN	NaN	NaN	NaN	d	12	1	0.9	1.26	69.7128832525924	41.8736656369023	52.9909262905921	70.1156602958224	423.9349678047	8.26078157918528	1
426.838164150715	2.01612924900837	6	object_onset	2	stay	0.36	13	44	-31	n/a	NaN	NaN	NaN	NaN	NaN	NaN	NaN	NaN	NaN	NaN	NaN
432.403402425349	2.01615484897047	5	object_onset	1	switch	0.36	71	3	68	n/a	NaN	NaN	NaN	NaN	NaN	NaN	NaN	NaN	NaN	NaN	NaN
437.268797563855	2.01621436886489	6	object_onset	2	switch	0.36	13	44	-31	n/a	NaN	NaN	NaN	NaN	NaN	NaN	NaN	NaN	NaN	NaN	NaN
442.800778622506	2.01615548902191	8	object_onset	1	switch	0.814984662432368	44	16	28	n/a	NaN	NaN	NaN	NaN	NaN	NaN	NaN	NaN	NaN	NaN	NaN
447.849473568844	2.01615612907335	4	object_onset	1	stay	1.26	14	2	12	n/a	NaN	NaN	NaN	NaN	NaN	NaN	NaN	NaN	NaN	NaN	NaN
454.997594884597	2.01624252879992	11	object_onset	1	stay	1.27914033631967	3	100	-97	n/a	NaN	NaN	NaN	NaN	NaN	NaN	NaN	NaN	NaN	NaN	NaN
462.779049064266	2.01615580893122	5	object_onset	2	switch	1.20747670784989	3	71	-68	n/a	NaN	NaN	NaN	NaN	NaN	NaN	NaN	NaN	NaN	NaN	NaN
469.91057169158	2.0161708490923	11	object_onset	2	stay	1.20747670784989	100	3	97	n/a	NaN	NaN	NaN	NaN	NaN	NaN	NaN	NaN	NaN	NaN	NaN
476.858783310978	3.34924124949612	11	choice	2	n/a	NaN	NaN	NaN	NaN	d	3	2	0.524785670536077	0.853814968245462	49.7671002275025	83.8378807534661	7.99033392515088	1.88362051778864	480.192617230117	3.33383391913958	1
485.42338446714	2.01610972895287	8	object_onset	1	switch	0.853814968245462	44	16	28	n/a	NaN	NaN	NaN	NaN	NaN	NaN	NaN	NaN	NaN	NaN	NaN
492.28827272635	11.6637632057536	8	choice	1	n/a	NaN	NaN	NaN	NaN	d	5	11	0.853814968245462	0.853814968245462	27.2811430344322	40.5840886391862	13.5499782611421	83.8378807534661	503.936316922307	11.6480441959575	1
509.250716958661	2.01614268892445	12	object_onset	2	switch	0.524785670536077	72	18	54	n/a	NaN	NaN	NaN	NaN	NaN	NaN	NaN	NaN	NaN	NaN	NaN
514.482718753163	2.01612892886624	1	object_onset	1	switch	0.763675323681471	1	44	-43	n/a	NaN	NaN	NaN	NaN	NaN	NaN	NaN	NaN	NaN	NaN	NaN
520.014653731836	2.01616028882563	5	object_onset	2	switch	1.26	3	71	-68	n/a	NaN	NaN	NaN	NaN	NaN	NaN	NaN	NaN	NaN	NaN	NaN
525.713226470631	2.01615420891903	1	object_onset	1	switch	1.26	1	44	-43	n/a	NaN	NaN	NaN	NaN	NaN	NaN	NaN	NaN	NaN	NaN	NaN
531.278486185241	2.01614652900025	1	object_onset	2	switch	0	44	1	43	n/a	NaN	NaN	NaN	NaN	NaN	NaN	NaN	NaN	NaN	NaN	NaN
536.927037260029	2.01618236885406	10	object_onset	2	stay	1.08747413762351	50	5	45	n/a	NaN	NaN	NaN	NaN	NaN	NaN	NaN	NaN	NaN	NaN	NaN
544.258547663456	2.0161513290368	11	object_onset	1	switch	0.524785670536077	3	100	-97	n/a	NaN	NaN	NaN	NaN	NaN	NaN	NaN	NaN	NaN	NaN	NaN
549.357235793956	2.31599683337845	11	choice	1	n/a	NaN	NaN	NaN	NaN	d	10	6	0.524785670536077	0.9	1.88362051778864	40.5840886391862	49.7671002275026	86.800615681217	551.652416667202	2.29518087324686	1
555.638980853138	2.01616124901921	6	object_onset	2	switch	0.9	13	44	-31	n/a	NaN	NaN	NaN	NaN	NaN	NaN	NaN	NaN	NaN	NaN	NaN
560.537768887356	2.01617532898672	10	object_onset	1	switch	1.08747413762351	5	50	-45	n/a	NaN	NaN	NaN	NaN	NaN	NaN	NaN	NaN	NaN	NaN	NaN
566.153028186178	2.01615484897047	4	object_onset	1	stay	1.53792067415716	14	2	12	n/a	NaN	NaN	NaN	NaN	NaN	NaN	NaN	NaN	NaN	NaN	NaN
570.985128988512	4.79877734626643	4	choice	1	n/a	NaN	NaN	NaN	NaN	d	5	3	0.763675323681471	0.524785670536077	3.02583024744705	56.8490675010205	48.5598131691118	0.93905438200614	575.776937068207	4.79180807969533	-1
579.566502592294	2.01597116934136	2	object_onset	1	stay	0.569209978830308	5	16	-11	n/a	NaN	NaN	NaN	NaN	NaN	NaN	NaN	NaN	NaN	NaN	NaN
585.881374307675	2.01615036907606	1	object_onset	2	switch	0.524785670536077	44	1	43	n/a	NaN	NaN	NaN	NaN	NaN	NaN	NaN	NaN	NaN	NaN	NaN
593.312852519331	2.01616124878637	11	object_onset	2	stay	0.569209978830308	100	3	97	n/a	NaN	NaN	NaN	NaN	NaN	NaN	NaN	NaN	NaN	NaN	NaN
599.277980266139	2.01608156925067	3	object_onset	1	switch	0.524785670536077	11	50	-39	n/a	NaN	NaN	NaN	NaN	NaN	NaN	NaN	NaN	NaN	NaN	NaN
606.076307053445	2.01612796890549	6	object_onset	2	switch	0.458911756223351	13	44	-31	n/a	NaN	NaN	NaN	NaN	NaN	NaN	NaN	NaN	NaN	NaN	NaN
611.20834839996	10.3807208689395	6	choice	2	n/a	NaN	NaN	NaN	NaN	d	8	11	0.814984662432368	0.9	2.96273492775089	86.800615681217	7.105427357601e-15	40.5840886391862	621.579332967522	10.3709845675621	1
625.105024758261	2.01598428934813	3	object_onset	1	switch	0.458911756223351	11	50	-39	n/a	NaN	NaN	NaN	NaN	NaN	NaN	NaN	NaN	NaN	NaN	NaN
631.403267065762	2.01615228876472	12	object_onset	1	stay	0.458911756223351	18	72	-54	n/a	NaN	NaN	NaN	NaN	NaN	NaN	NaN	NaN	NaN	NaN	NaN
637.135147580411	2.01613084902056	9	object_onset	1	stay	0.458911756223351	71	19	52	n/a	NaN	NaN	NaN	NaN	NaN	NaN	NaN	NaN	NaN	NaN	NaN
644.016735967714	2.01608188915998	4	object_onset	1	stay	0.9	14	2	12	n/a	NaN	NaN	NaN	NaN	NaN	NaN	NaN	NaN	NaN	NaN	NaN
650.565076354891	2.01614972902462	3	object_onset	2	switch	0.763675323681471	50	11	39	n/a	NaN	NaN	NaN	NaN	NaN	NaN	NaN	NaN	NaN	NaN	NaN
658.363122822717	2.01616860902868	11	object_onset	1	switch	0.524785670536077	3	100	-97	n/a	NaN	NaN	NaN	NaN	NaN	NaN	NaN	NaN	NaN	NaN	NaN
663.595129417256	2.01614492898807	6	object_onset	1	stay	0.9	44	13	31	n/a	NaN	NaN	NaN	NaN	NaN	NaN	NaN	NaN	NaN	NaN	NaN
668.593884619651	2.01615548902191	9	object_onset	1	stay	0.458911756223351	71	19	52	n/a	NaN	NaN	NaN	NaN	NaN	NaN	NaN	NaN	NaN	NaN	NaN
674.90892881481	2.01616988889873	3	object_onset	2	switch	0.648999229583518	50	11	39	n/a	NaN	NaN	NaN	NaN	NaN	NaN	NaN	NaN	NaN	NaN	NaN
682.407080498291	2.01615228899755	8	object_onset	2	stay	0.9	16	44	-28	n/a	NaN	NaN	NaN	NaN	NaN	NaN	NaN	NaN	NaN	NaN	NaN
688.172283189138	2.0161570890341	9	object_onset	2	stay	0.36	19	71	-52	n/a	NaN	NaN	NaN	NaN	NaN	NaN	NaN	NaN	NaN	NaN	NaN
693.021065239562	11.4637725495268	9	choice	2	n/a	NaN	NaN	NaN	NaN	d	10	3	0.648999229583518	0.763675323681471	31.2285063350093	31.2285063350093	59.8748977484675	65.9816111558297	704.464765507495	11.4437002679333	1
709.883483103709	2.01616828888655	4	object_onset	1	switch	0.9	14	2	12	n/a	NaN	NaN	NaN	NaN	NaN	NaN	NaN	NaN	NaN	NaN	NaN
715.282124258345	2.01601084927097	1	object_onset	1	stay	1.08747413762351	1	44	-43	n/a	NaN	NaN	NaN	NaN	NaN	NaN	NaN	NaN	NaN	NaN	NaN
720.597459332785	2.01614876906388	9	object_onset	2	switch	1.08747413762351	19	71	-52	n/a	NaN	NaN	NaN	NaN	NaN	NaN	NaN	NaN	NaN	NaN	NaN
726.245990887517	2.01616348908283	2	object_onset	2	stay	0.9	16	5	11	n/a	NaN	NaN	NaN	NaN	NaN	NaN	NaN	NaN	NaN	NaN	NaN
731.111458985833	8.06465043593198	2	choice	2	n/a	NaN	NaN	NaN	NaN	d	9	12	0.814984662432368	0.9	56.1629049914503	2.84227419095423	12.9906848652376	65.9816111558297	739.157404497731	8.04594551189803	1
742.158672015183	2.01616508909501	6	object_onset	2	stay	0.524785670536077	13	44	-31	n/a	NaN	NaN	NaN	NaN	NaN	NaN	NaN	NaN	NaN	NaN	NaN
749.156888978789	2.01615580893122	7	object_onset	1	switch	0.763675323681471	90	2	88	n/a	NaN	NaN	NaN	NaN	NaN	NaN	NaN	NaN	NaN	NaN	NaN
754.922140629496	2.01613596896641	2	object_onset	2	switch	1.27914033631967	16	5	11	n/a	NaN	NaN	NaN	NaN	NaN	NaN	NaN	NaN	NaN	NaN	NaN
761.870354808867	2.01614908897318	11	object_onset	1	switch	0.853814968245462	3	100	-97	n/a	NaN	NaN	NaN	NaN	NaN	NaN	NaN	NaN	NaN	NaN	NaN
768.868585852208	2.01616316894069	10	object_onset	1	stay	0.524785670536077	5	50	-45	n/a	NaN	NaN	NaN	NaN	NaN	NaN	NaN	NaN	NaN	NaN	NaN
773.067557630129	5.81521795480512	10	choice	1	n/a	NaN	NaN	NaN	NaN	d	1	2	1.08747413762351	1.26	4.13404913999263	1.77635683940025e-15	5.74709315020331	34.0707805259635	778.865888257511	5.7983306273818	1
782.131948546506	2.01612764922902	12	object_onset	2	switch	0.458911756223351	72	18	54	n/a	NaN	NaN	NaN	NaN	NaN	NaN	NaN	NaN	NaN	NaN	NaN
788.563631557859	2.01620604889467	7	object_onset	2	stay	0.9	2	90	-88	n/a	NaN	NaN	NaN	NaN	NaN	NaN	NaN	NaN	NaN	NaN	NaN
796.078393449308	2.01617532898672	4	object_onset	2	stay	1.08747413762351	2	14	-12	n/a	NaN	NaN	NaN	NaN	NaN	NaN	NaN	NaN	NaN	NaN	NaN
801.04380951589	2.01616924884729	2	object_onset	2	stay	0.569209978830308	16	5	11	n/a	NaN	NaN	NaN	NaN	NaN	NaN	NaN	NaN	NaN	NaN	NaN
808.541963759344	2.01614620909095	12	object_onset	1	switch	0.814984662432368	18	72	-54	n/a	NaN	NaN	NaN	NaN	NaN	NaN	NaN	NaN	NaN	NaN	NaN
814.207163762068	2.01620764890686	12	object_onset	2	switch	0	72	18	54	n/a	NaN	NaN	NaN	NaN	NaN	NaN	NaN	NaN	NaN	NaN	NaN
820.755510229385	2.01615324895829	8	object_onset	2	stay	0.524785670536077	16	44	-28	n/a	NaN	NaN	NaN	NaN	NaN	NaN	NaN	NaN	NaN	NaN	NaN
826.970653496217	2.01604924933054	9	object_onset	1	switch	0.36	71	19	52	n/a	NaN	NaN	NaN	NaN	NaN	NaN	NaN	NaN	NaN	NaN	NaN
834.268782523926	2.01621116884053	5	object_onset	2	switch	0.524785670536077	3	71	-68	n/a	NaN	NaN	NaN	NaN	NaN	NaN	NaN	NaN	NaN	NaN	NaN
840.217266462743	2.01616988889873	7	object_onset	2	stay	0.569209978830308	2	90	-88	n/a	NaN	NaN	NaN	NaN	NaN	NaN	NaN	NaN	NaN	NaN	NaN
845.066069313092	2.01617980888113	7	object_onset	1	switch	0	90	2	88	n/a	NaN	NaN	NaN	NaN	NaN	NaN	NaN	NaN	NaN	NaN	NaN
850.164781763451	2.01614204910584	1	object_onset	1	stay	1.53792067415716	1	44	-43	n/a	NaN	NaN	NaN	NaN	NaN	NaN	NaN	NaN	NaN	NaN	NaN
855.463448390132	2.01617756881751	8	object_onset	2	switch	1.27914033631967	16	44	-28	n/a	NaN	NaN	NaN	NaN	NaN	NaN	NaN	NaN	NaN	NaN	NaN
862.278383145342	2.01615388900973	4	object_onset	1	switch	1.26	14	2	12	n/a	NaN	NaN	NaN	NaN	NaN	NaN	NaN	NaN	NaN	NaN	NaN
867.577091371873	2.01601500925608	5	object_onset	1	stay	0.524785670536077	71	3	68	n/a	NaN	NaN	NaN	NaN	NaN	NaN	NaN	NaN	NaN	NaN	NaN
873.358961550752	2.01607196917757	12	object_onset	2	switch	0.9	72	18	54	n/a	NaN	NaN	NaN	NaN	NaN	NaN	NaN	NaN	NaN	NaN	NaN
880.557140690275	2.0161417289637	10	object_onset	2	stay	0.458911756223351	50	5	45	n/a	NaN	NaN	NaN	NaN	NaN	NaN	NaN	NaN	NaN	NaN	NaN
885.855698517058	2.01624540868215	9	object_onset	1	switch	0.763675323681471	71	19	52	n/a	NaN	NaN	NaN	NaN	NaN	NaN	NaN	NaN	NaN	NaN	NaN
891.504351991462	2.01617244910449	8	object_onset	2	switch	0.36	16	44	-28	n/a	NaN	NaN	NaN	NaN	NaN	NaN	NaN	NaN	NaN	NaN	NaN
897.302925498225	2.01613116916269	12	object_onset	2	stay	0.524785670536077	72	18	54	n/a	NaN	NaN	NaN	NaN	NaN	NaN	NaN	NaN	NaN	NaN	NaN
902.135057660518	16.5624498000834	12	choice	2	n/a	NaN	NaN	NaN	NaN	d	7	4	0.9	1.08747413762351	70.4357926371693	70.6519376345985	72.4864622809436	3.85814121042835	918.690089234849	16.5550315743312	1
921.780058342265	2.01615836890414	5	object_onset	1	switch	0.9	71	3	68	n/a	NaN	NaN	NaN	NaN	NaN	NaN	NaN	NaN	NaN	NaN	NaN
927.661923849024	3.11590633750893	5	choice	1	n/a	NaN	NaN	NaN	NaN	d	7	8	0.569209978830308	0.853814968245462	19.4955359903515	27.2811430344322	0.72290938457687	13.5499782611421	930.763275014469	3.10135116544552	1
934.54352311627	2.01617980911396	3	object_onset	1	stay	0.814984662432368	11	50	-39	n/a	NaN	NaN	NaN	NaN	NaN	NaN	NaN	NaN	NaN	NaN	NaN
940.941930031404	2.01615356910042	5	object_onset	1	stay	0.814984662432368	71	3	68	n/a	NaN	NaN	NaN	NaN	NaN	NaN	NaN	NaN	NaN	NaN	NaN
945.790609041927	2.01626012870111	10	object_onset	1	stay	1.27914033631967	5	50	-45	n/a	NaN	NaN	NaN	NaN	NaN	NaN	NaN	NaN	NaN	NaN	NaN
952.172407669015	2.01614556880668	1	object_onset	2	switch	1.08747413762351	44	1	43	n/a	NaN	NaN	NaN	NaN	NaN	NaN	NaN	NaN	NaN	NaN	NaN
957.037850487279	2.01614844892174	2	object_onset	2	stay	0.524785670536077	16	5	11	n/a	NaN	NaN	NaN	NaN	NaN	NaN	NaN	NaN	NaN	NaN	NaN
964.2860064907	2.01616636896506	2	object_onset	1	switch	0	5	16	-11	n/a	NaN	NaN	NaN	NaN	NaN	NaN	NaN	NaN	NaN	NaN	NaN
971.66748799826	2.01604732917622	10	object_onset	2	switch	1.26	50	5	45	n/a	NaN	NaN	NaN	NaN	NaN	NaN	NaN	NaN	NaN	NaN	NaN
976.632940544747	2.0161574089434	5	object_onset	2	stay	1.27914033631967	3	71	-68	n/a	NaN	NaN	NaN	NaN	NaN	NaN	NaN	NaN	NaN	NaN	NaN
982.281409059651	2.01623580884188	10	object_onset	1	switch	1.27914033631967	5	50	-45	n/a	NaN	NaN	NaN	NaN	NaN	NaN	NaN	NaN	NaN	NaN	NaN
987.313551717903	2.01615356910042	9	object_onset	2	switch	0.763675323681471	19	71	-52	n/a	NaN	NaN	NaN	NaN	NaN	NaN	NaN	NaN	NaN	NaN	NaN
992.762217416428	2.01601596921682	5	object_onset	2	stay	0.524785670536077	3	71	-68	n/a	NaN	NaN	NaN	NaN	NaN	NaN	NaN	NaN	NaN	NaN	NaN
999.960354316048	2.01619676896371	6	object_onset	1	switch	0.36	44	13	31	n/a	NaN	NaN	NaN	NaN	NaN	NaN	NaN	NaN	NaN	NaN	NaN
1004.84249342233	2.01613436895423	2	object_onset	1	stay	0.524785670536077	5	16	-11	n/a	NaN	NaN	NaN	NaN	NaN	NaN	NaN	NaN	NaN	NaN	NaN
1011.82408993761	2.01614396902733	11	object_onset	1	stay	0.853814968245462	3	100	-97	n/a	NaN	NaN	NaN	NaN	NaN	NaN	NaN	NaN	NaN	NaN	NaN
1017.08927182853	2.01625916874036	3	object_onset	2	switch	0.524785670536077	50	11	39	n/a	NaN	NaN	NaN	NaN	NaN	NaN	NaN	NaN	NaN	NaN	NaN
1022.30473509477	2.01616156892851	6	object_onset	2	stay	0.458911756223351	13	44	-31	n/a	NaN	NaN	NaN	NaN	NaN	NaN	NaN	NaN	NaN	NaN	NaN
1029.4029825863	2.0160041290801	4	object_onset	2	stay	0.458911756223351	2	14	-12	n/a	NaN	NaN	NaN	NaN	NaN	NaN	NaN	NaN	NaN	NaN	NaN
1035.91797071742	2.01616252888925	7	object_onset	1	switch	1.08747413762351	90	2	88	n/a	NaN	NaN	NaN	NaN	NaN	NaN	NaN	NaN	NaN	NaN	NaN
1041.83318624017	2.01614812901244	9	object_onset	1	stay	0.458911756223351	71	19	52	n/a	NaN	NaN	NaN	NaN	NaN	NaN	NaN	NaN	NaN	NaN	NaN
1047.21514518675	3.98233571392484	9	choice	1	n/a	NaN	NaN	NaN	NaN	d	11	12	0.458911756223351	0.814984662432368	52.9909262905921	67.8652316736184	53.3206308004961	80.9956065625119	1051.1857330834	3.97058789664879	1
1054.87988439063	2.01603580918163	6	object_onset	1	stay	0.458911756223351	44	13	31	n/a	NaN	NaN	NaN	NaN	NaN	NaN	NaN	NaN	NaN	NaN	NaN
1062.51130429818	2.01616028905846	4	object_onset	1	stay	0.458911756223351	14	2	12	n/a	NaN	NaN	NaN	NaN	NaN	NaN	NaN	NaN	NaN	NaN	NaN
1067.87657687697	2.01616860879585	7	object_onset	2	switch	1.08747413762351	2	90	-88	n/a	NaN	NaN	NaN	NaN	NaN	NaN	NaN	NaN	NaN	NaN	NaN
1073.72515220754	5.33198688272387	7	choice	2	n/a	NaN	NaN	NaN	NaN	d	9	4	0.458911756223351	1.08747413762351	17.1151618366732	0.216144997429269	19.4955359903515	76.3446034913719	1079.05097846198	5.32582625444047	1
1084.60573611688	2.01612444897182	9	object_onset	1	switch	0.458911756223351	71	19	52	n/a	NaN	NaN	NaN	NaN	NaN	NaN	NaN	NaN	NaN	NaN	NaN
1090.837483512	2.01611100905575	12	object_onset	1	stay	0.458911756223351	18	72	-54	n/a	NaN	NaN	NaN	NaN	NaN	NaN	NaN	NaN	NaN	NaN	NaN
1096.16948991455	2.01615964900702	7	object_onset	1	stay	0.9	90	2	88	n/a	NaN	NaN	NaN	NaN	NaN	NaN	NaN	NaN	NaN	NaN	NaN
1100.951511133	7.43154637143016	7	choice	1	n/a	NaN	NaN	NaN	NaN	d	6	8	0.524785670536077	0.763675323681471	46.7766790247836	46.7766790247836	14.272887645719	11.3101527179681	1108.37290232396	7.421391190961	1
1113.68173789093	2.01615420915186	3	object_onset	1	stay	1.08747413762351	11	50	-39	n/a	NaN	NaN	NaN	NaN	NaN	NaN	NaN	NaN	NaN	NaN	NaN
1119.08036080562	2.01614844892174	4	object_onset	2	switch	0.763675323681471	2	14	-12	n/a	NaN	NaN	NaN	NaN	NaN	NaN	NaN	NaN	NaN	NaN	NaN
1123.67919773585	3.9156772820279	4	choice	2	n/a	NaN	NaN	NaN	NaN	d	11	6	0.458911756223351	1.27914033631967	11.5262977153973	98.3269133966143	29.5679244665883	11.0161641725979	1127.57908208808	3.89988435222767	1
