onset	duration	object	trial_type	map	stayswitch	distance	value	counterfactual_value	value_diff	choicetype	object1	object2	chosen_distance	unchosen_distance	chosen_value	unchosen_value	counterfactual_chosen_value	counterfactual_unchosen_value	button	response_time	cr
8.78292622911977	2.01603307988262	1	object_onset	1	n/a	NaN	NaN	NaN	NaN	n/a	NaN	NaN	NaN	NaN	NaN	NaN	NaN	NaN	NaN	NaN	NaN
13.7316183894291	2.01617547811475	7	object_onset	1	stay	1.53792067415716	90	2	88	n/a	NaN	NaN	NaN	NaN	NaN	NaN	NaN	NaN	NaN	NaN	NaN
19.6467221688945	2.01617131818784	10	object_onset	2	switch	1.08747413762351	50	5	45	n/a	NaN	NaN	NaN	NaN	NaN	NaN	NaN	NaN	NaN	NaN	NaN
24.8953536259942	2.01613227865892	2	object_onset	2	stay	1.26	16	5	11	n/a	NaN	NaN	NaN	NaN	NaN	NaN	NaN	NaN	NaN	NaN	NaN
31.5101939527667	2.01622891746229	11	object_onset	1	switch	0.853814968245462	3	100	-97	n/a	NaN	NaN	NaN	NaN	NaN	NaN	NaN	NaN	NaN	NaN	NaN
36.6922953601461	13.0965808746987	11	choice	1	n/a	NaN	NaN	NaN	NaN	v	8	7	0.853814968245462	1.26	40.5840886391862	87.3607676639699	83.8378807534661	98.110768399185	49.7747778507764	13.0824824906304	1
53.0546300382121	2.01612939871848	10	object_onset	1	stay	0.524785670536077	5	50	-45	n/a	NaN	NaN	NaN	NaN	NaN	NaN	NaN	NaN	NaN	NaN	NaN
59.5696111312718	2.01614795846399	7	object_onset	2	switch	1.08747413762351	2	90	-88	n/a	NaN	NaN	NaN	NaN	NaN	NaN	NaN	NaN	NaN	NaN	NaN
66.5509960035561	21.4278049010318	7	choice	2	n/a	NaN	NaN	NaN	NaN	d	3	10	1.08747413762351	1.08747413762351	48.3436681716825	48.3436681716825	85.4771471461812	79.370433738819	87.9665082580177	21.4155122544616	1
91.5445775236585	2.01613003871171	7	object_onset	2	stay	0	2	90	-88	n/a	NaN	NaN	NaN	NaN	NaN	NaN	NaN	NaN	NaN	NaN	NaN
99.1591192941996	2.01626347703859	8	object_onset	1	switch	0.524785670536077	44	16	28	n/a	NaN	NaN	NaN	NaN	NaN	NaN	NaN	NaN	NaN	NaN	NaN
106.623915093543	2.01602732000174	5	object_onset	1	stay	0.853814968245462	71	3	68	n/a	NaN	NaN	NaN	NaN	NaN	NaN	NaN	NaN	NaN	NaN	NaN
112.839003929228	2.01599468040513	7	object_onset	2	switch	0.569209978830308	2	90	-88	n/a	NaN	NaN	NaN	NaN	NaN	NaN	NaN	NaN	NaN	NaN	NaN
118.537499532045	2.01609707908938	5	object_onset	2	stay	0.569209978830308	3	71	-68	n/a	NaN	NaN	NaN	NaN	NaN	NaN	NaN	NaN	NaN	NaN	NaN
123.51947863691	2.01603019994218	4	object_onset	1	switch	0.524785670536077	14	2	12	n/a	NaN	NaN	NaN	NaN	NaN	NaN	NaN	NaN	NaN	NaN	NaN
128.918064382568	2.0161441185046	1	object_onset	1	stay	1.08747413762351	1	44	-43	n/a	NaN	NaN	NaN	NaN	NaN	NaN	NaN	NaN	NaN	NaN	NaN
135.899602852995	2.01613867859123	8	object_onset	1	stay	1.27914033631967	44	16	28	n/a	NaN	NaN	NaN	NaN	NaN	NaN	NaN	NaN	NaN	NaN	NaN
141.13153787842	2.01614155853167	2	object_onset	1	stay	1.20747670784989	5	16	-11	n/a	NaN	NaN	NaN	NaN	NaN	NaN	NaN	NaN	NaN	NaN	NaN
146.013473751838	7.18156989401905	2	choice	1	n/a	NaN	NaN	NaN	NaN	v	6	10	1.26	0.524785670536077	1.77635683940025e-15	38.7004681213976	34.0707805259635	2.96273492775089	153.178456972877	7.16498322103871	1
158.593612111756	2.01614091853844	12	object_onset	2	switch	0.814984662432368	72	18	54	n/a	NaN	NaN	NaN	NaN	NaN	NaN	NaN	NaN	NaN	NaN	NaN
164.725271268631	2.01614955847617	8	object_onset	1	switch	0.524785670536077	44	16	28	n/a	NaN	NaN	NaN	NaN	NaN	NaN	NaN	NaN	NaN	NaN	NaN
169.340692388185	28.4260266831843	8	choice	1	n/a	NaN	NaN	NaN	NaN	d	2	11	0.853814968245462	1.20747670784989	40.5840886391862	38.7004681213976	83.8378807534661	0	197.74864057696	28.4079481887748	1
201.615561277838	2.0162535571144	3	object_onset	1	stay	0.9	11	50	-39	n/a	NaN	NaN	NaN	NaN	NaN	NaN	NaN	NaN	NaN	NaN	NaN
208.147284561885	2.0161805980606	1	object_onset	2	switch	0.458911756223351	44	1	43	n/a	NaN	NaN	NaN	NaN	NaN	NaN	NaN	NaN	NaN	NaN	NaN
214.57902573375	22.6773806663114	1	choice	2	n/a	NaN	NaN	NaN	NaN	v	7	4	1.08747413762351	1.53792067415716	42.8127200189084	42.5965750214792	13.2665927948019	89.6111962861739	237.247144435649	22.6681187018985	-1
241.088664173498	2.01613355864538	1	object_onset	1	switch	0	1	44	-43	n/a	NaN	NaN	NaN	NaN	NaN	NaN	NaN	NaN	NaN	NaN	NaN
247.753572675399	9.73082447930938	1	choice	1	n/a	NaN	NaN	NaN	NaN	d	8	4	1.08747413762351	1.27914033631967	13.2665927948019	42.8345172613902	42.8127200189084	28.3236873757602	257.467634163913	9.71406148851383	1
262.016514673887	2.01613451866433	5	object_onset	2	switch	1.26	3	71	-68	n/a	NaN	NaN	NaN	NaN	NaN	NaN	NaN	NaN	NaN	NaN	NaN
269.597850138845	2.01617163815536	2	object_onset	1	switch	0.853814968245462	5	16	-11	n/a	NaN	NaN	NaN	NaN	NaN	NaN	NaN	NaN	NaN	NaN	NaN
275.762937038555	2.01613611861831	4	object_onset	2	switch	0.569209978830308	2	14	-12	n/a	NaN	NaN	NaN	NaN	NaN	NaN	NaN	NaN	NaN	NaN	NaN
282.077825268731	2.01625995710492	3	object_onset	1	switch	0.763675323681471	11	50	-39	n/a	NaN	NaN	NaN	NaN	NaN	NaN	NaN	NaN	NaN	NaN	NaN
287.559812213585	2.01613291865215	11	object_onset	1	stay	0.524785670536077	3	100	-97	n/a	NaN	NaN	NaN	NaN	NaN	NaN	NaN	NaN	NaN	NaN	NaN
292.741823382035	2.01613227871712	7	object_onset	1	stay	1.26	90	2	88	n/a	NaN	NaN	NaN	NaN	NaN	NaN	NaN	NaN	NaN	NaN	NaN
299.639968973177	2.01617835811339	7	object_onset	1	stay	0	90	2	88	n/a	NaN	NaN	NaN	NaN	NaN	NaN	NaN	NaN	NaN	NaN	NaN
306.254919378611	2.01604011980817	6	object_onset	2	switch	0.763675323681471	13	44	-31	n/a	NaN	NaN	NaN	NaN	NaN	NaN	NaN	NaN	NaN	NaN	NaN
313.686295755033	2.01617067819461	1	object_onset	1	switch	0.9	1	44	-43	n/a	NaN	NaN	NaN	NaN	NaN	NaN	NaN	NaN	NaN	NaN	NaN
320.367881168844	2.01604651974048	8	object_onset	2	switch	1.27914033631967	16	44	-28	n/a	NaN	NaN	NaN	NaN	NaN	NaN	NaN	NaN	NaN	NaN	NaN
325.216626416543	2.0161217187997	10	object_onset	1	switch	0.569209978830308	5	50	-45	n/a	NaN	NaN	NaN	NaN	NaN	NaN	NaN	NaN	NaN	NaN	NaN
330.798493394803	2.01615115843015	8	object_onset	1	stay	0.569209978830308	44	16	28	n/a	NaN	NaN	NaN	NaN	NaN	NaN	NaN	NaN	NaN	NaN	NaN
336.347011989332	2.01614443847211	5	object_onset	2	switch	0.853814968245462	3	71	-68	n/a	NaN	NaN	NaN	NaN	NaN	NaN	NaN	NaN	NaN	NaN	NaN
342.395435064973	2.01613003871171	7	object_onset	2	stay	0.569209978830308	2	90	-88	n/a	NaN	NaN	NaN	NaN	NaN	NaN	NaN	NaN	NaN	NaN	NaN
348.44391253998	2.01612267881865	10	object_onset	1	switch	1.08747413762351	5	50	-45	n/a	NaN	NaN	NaN	NaN	NaN	NaN	NaN	NaN	NaN	NaN	NaN
353.109330795589	8.08120986650465	10	choice	1	n/a	NaN	NaN	NaN	NaN	d	1	9	0.763675323681471	1.08747413762351	65.9816111558297	4.13404913999263	31.2285063350093	5.74709315020331	361.178469132748	8.06913833715953	1
364.256373120472	2.0161319586914	11	object_onset	2	switch	0.524785670536077	100	3	97	n/a	NaN	NaN	NaN	NaN	NaN	NaN	NaN	NaN	NaN	NaN	NaN
370.954647926032	2.01610507897567	3	object_onset	1	switch	0.524785670536077	11	50	-39	n/a	NaN	NaN	NaN	NaN	NaN	NaN	NaN	NaN	NaN	NaN	NaN
375.586726437672	6.04845187533647	3	choice	1	n/a	NaN	NaN	NaN	NaN	d	10	2	0.36	0.9	6.10671340736224	6.10671340736224	34.0707805259635	2.1316282072803e-14	381.62260406994	6.03587763226824	1
385.500811029866	2.01607051945757	7	object_onset	1	stay	1.08747413762351	90	2	88	n/a	NaN	NaN	NaN	NaN	NaN	NaN	NaN	NaN	NaN	NaN	NaN
391.166011688183	2.01614059857093	9	object_onset	1	stay	0.458911756223351	71	19	52	n/a	NaN	NaN	NaN	NaN	NaN	NaN	NaN	NaN	NaN	NaN	NaN
396.4146092257	2.01613035867922	4	object_onset	2	switch	0.9	2	14	-12	n/a	NaN	NaN	NaN	NaN	NaN	NaN	NaN	NaN	NaN	NaN	NaN
401.296691017284	2.01613515865756	11	object_onset	1	switch	1.27914033631967	3	100	-97	n/a	NaN	NaN	NaN	NaN	NaN	NaN	NaN	NaN	NaN	NaN	NaN
406.695269403048	2.01614059857093	11	object_onset	2	switch	0	100	3	97	n/a	NaN	NaN	NaN	NaN	NaN	NaN	NaN	NaN	NaN	NaN	NaN
412.54359033599	5.4320589278941	11	choice	2	n/a	NaN	NaN	NaN	NaN	v	7	6	0.9	1.26	86.800615681217	98.110768399185	40.5840886391862	87.3607676639699	417.955925670045	5.41233533405466	1
422.341172702203	2.01610411901493	2	object_onset	1	switch	0.853814968245462	5	16	-11	n/a	NaN	NaN	NaN	NaN	NaN	NaN	NaN	NaN	NaN	NaN	NaN
427.206447343575	2.0162212375435	3	object_onset	1	stay	0.36	11	50	-39	n/a	NaN	NaN	NaN	NaN	NaN	NaN	NaN	NaN	NaN	NaN	NaN
433.821499187732	2.01600076031173	10	object_onset	2	switch	0.9	50	5	45	n/a	NaN	NaN	NaN	NaN	NaN	NaN	NaN	NaN	NaN	NaN	NaN
440.536362906219	2.01617739809444	10	object_onset	2	stay	0	50	5	45	n/a	NaN	NaN	NaN	NaN	NaN	NaN	NaN	NaN	NaN	NaN	NaN
445.001755818084	16.5791210925672	10	choice	2	n/a	NaN	NaN	NaN	NaN	d	4	5	1.27914033631967	1.53792067415716	47.6207587871056	48.5598131691118	65.9816111558298	9.13254365480929	461.573876038019	16.5721202199347	1
465.479835291684	2.01605451962678	10	object_onset	1	switch	0	5	50	-45	n/a	NaN	NaN	NaN	NaN	NaN	NaN	NaN	NaN	NaN	NaN	NaN
471.828169824439	2.01618347805925	11	object_onset	1	stay	0.524785670536077	3	100	-97	n/a	NaN	NaN	NaN	NaN	NaN	NaN	NaN	NaN	NaN	NaN	NaN
477.010145153385	2.01612139883218	1	object_onset	2	switch	0.569209978830308	44	1	43	n/a	NaN	NaN	NaN	NaN	NaN	NaN	NaN	NaN	NaN	NaN	NaN
482.408726099122	2.01614283851814	6	object_onset	1	switch	0.9	44	13	31	n/a	NaN	NaN	NaN	NaN	NaN	NaN	NaN	NaN	NaN	NaN	NaN
487.27414089872	2.01611851883354	12	object_onset	2	switch	0.648999229583518	72	18	54	n/a	NaN	NaN	NaN	NaN	NaN	NaN	NaN	NaN	NaN	NaN	NaN
492.139510258916	2.01613547862507	12	object_onset	2	stay	0	72	18	54	n/a	NaN	NaN	NaN	NaN	NaN	NaN	NaN	NaN	NaN	NaN	NaN
498.971042281424	2.01618315803353	6	object_onset	1	switch	0.648999229583518	44	13	31	n/a	NaN	NaN	NaN	NaN	NaN	NaN	NaN	NaN	NaN	NaN	NaN
504.719572459755	2.01611051894724	2	object_onset	1	stay	0.524785670536077	5	16	-11	n/a	NaN	NaN	NaN	NaN	NaN	NaN	NaN	NaN	NaN	NaN	NaN
512.167583508592	2.01614507846534	11	object_onset	2	switch	0.853814968245462	100	3	97	n/a	NaN	NaN	NaN	NaN	NaN	NaN	NaN	NaN	NaN	NaN	NaN
517.799454022839	2.01605259964708	7	object_onset	1	switch	1.26	90	2	88	n/a	NaN	NaN	NaN	NaN	NaN	NaN	NaN	NaN	NaN	NaN	NaN
522.264830294938	6.41509945952566	7	choice	1	n/a	NaN	NaN	NaN	NaN	v	5	3	1.08747413762351	0.569209978830308	79.370433738819	19.4955359903515	48.3436681716825	0.72290938457687	528.669167328801	6.40433703386225	-1
534.295036637981	2.01625739707379	2	object_onset	2	switch	1.27914033631967	16	5	11	n/a	NaN	NaN	NaN	NaN	NaN	NaN	NaN	NaN	NaN	NaN	NaN
539.593760269869	2.01614475855604	11	object_onset	2	stay	0.853814968245462	100	3	97	n/a	NaN	NaN	NaN	NaN	NaN	NaN	NaN	NaN	NaN	NaN	NaN
545.692124162277	2.01618603803217	9	object_onset	2	stay	0.814984662432368	19	71	-52	n/a	NaN	NaN	NaN	NaN	NaN	NaN	NaN	NaN	NaN	NaN	NaN
550.874111971119	2.0161665182095	6	object_onset	2	stay	0.458911756223351	13	44	-31	n/a	NaN	NaN	NaN	NaN	NaN	NaN	NaN	NaN	NaN	NaN	NaN
558.688775724091	2.01612363877939	5	object_onset	2	stay	0.36	3	71	-68	n/a	NaN	NaN	NaN	NaN	NaN	NaN	NaN	NaN	NaN	NaN	NaN
564.870443216874	2.01613483863184	12	object_onset	1	switch	0.9	18	72	-54	n/a	NaN	NaN	NaN	NaN	NaN	NaN	NaN	NaN	NaN	NaN	NaN
572.101911048172	2.01614155853167	1	object_onset	2	switch	0.763675323681471	44	1	43	n/a	NaN	NaN	NaN	NaN	NaN	NaN	NaN	NaN	NaN	NaN	NaN
577.267183225544	2.01615051843692	1	object_onset	2	stay	0	44	1	43	n/a	NaN	NaN	NaN	NaN	NaN	NaN	NaN	NaN	NaN	NaN	NaN
582.949031036114	2.0161421985249	6	object_onset	2	stay	0.9	13	44	-31	n/a	NaN	NaN	NaN	NaN	NaN	NaN	NaN	NaN	NaN	NaN	NaN
588.047718124464	2.01614987850189	3	object_onset	1	switch	0.458911756223351	11	50	-39	n/a	NaN	NaN	NaN	NaN	NaN	NaN	NaN	NaN	NaN	NaN	NaN
595.745690213807	2.01612523873337	8	object_onset	1	stay	0.9	44	16	28	n/a	NaN	NaN	NaN	NaN	NaN	NaN	NaN	NaN	NaN	NaN	NaN
602.593905228074	2.01613067870494	9	object_onset	1	stay	0.36	71	19	52	n/a	NaN	NaN	NaN	NaN	NaN	NaN	NaN	NaN	NaN	NaN	NaN
608.525715999072	2.01615275844233	8	object_onset	1	stay	0.36	44	16	28	n/a	NaN	NaN	NaN	NaN	NaN	NaN	NaN	NaN	NaN	NaN	NaN
613.39105847961	2.01613451860612	12	object_onset	2	switch	0.524785670536077	72	18	54	n/a	NaN	NaN	NaN	NaN	NaN	NaN	NaN	NaN	NaN	NaN	NaN
619.35619363474	4.11553839803673	12	choice	2	n/a	NaN	NaN	NaN	NaN	d	10	5	0.458911756223351	0.9	22.0921244654868	69.7128832525924	12.9906848652376	52.9909262905921	623.464172767126	4.10797913238639	1
626.754235067172	2.01615339837736	2	object_onset	1	switch	0.814984662432368	5	16	-11	n/a	NaN	NaN	NaN	NaN	NaN	NaN	NaN	NaN	NaN	NaN	NaN
633.502453889407	2.01612715871306	6	object_onset	1	stay	0.524785670536077	44	13	31	n/a	NaN	NaN	NaN	NaN	NaN	NaN	NaN	NaN	NaN	NaN	NaN
639.067654835701	2.01606027956586	5	object_onset	1	stay	0.36	71	3	68	n/a	NaN	NaN	NaN	NaN	NaN	NaN	NaN	NaN	NaN	NaN	NaN
644.232983012393	2.01601100020343	10	object_onset	2	switch	1.27914033631967	50	5	45	n/a	NaN	NaN	NaN	NaN	NaN	NaN	NaN	NaN	NaN	NaN	NaN
650.064797911327	2.01610699901357	5	object_onset	1	switch	1.27914033631967	71	3	68	n/a	NaN	NaN	NaN	NaN	NaN	NaN	NaN	NaN	NaN	NaN	NaN
655.729982249846	2.01609771908261	4	object_onset	1	stay	0.524785670536077	14	2	12	n/a	NaN	NaN	NaN	NaN	NaN	NaN	NaN	NaN	NaN	NaN	NaN
663.294696162222	2.01611435884843	4	object_onset	2	switch	0	2	14	-12	n/a	NaN	NaN	NaN	NaN	NaN	NaN	NaN	NaN	NaN	NaN	NaN
670.54281818564	2.01611819886602	4	object_onset	2	stay	0	2	14	-12	n/a	NaN	NaN	NaN	NaN	NaN	NaN	NaN	NaN	NaN	NaN	NaN
675.624768522917	2.01613611861831	3	object_onset	2	stay	0.763675323681471	50	11	39	n/a	NaN	NaN	NaN	NaN	NaN	NaN	NaN	NaN	NaN	NaN	NaN
680.67340055597	2.01615339843556	10	object_onset	1	switch	0.9	5	50	-45	n/a	NaN	NaN	NaN	NaN	NaN	NaN	NaN	NaN	NaN	NaN	NaN
686.88844043226	2.01614827848971	3	object_onset	2	switch	0.9	50	11	39	n/a	NaN	NaN	NaN	NaN	NaN	NaN	NaN	NaN	NaN	NaN	NaN
693.036829940393	2.01613707857905	6	object_onset	1	switch	0.458911756223351	44	13	31	n/a	NaN	NaN	NaN	NaN	NaN	NaN	NaN	NaN	NaN	NaN	NaN
700.351621531765	2.01602124009514	1	object_onset	1	stay	0.9	1	44	-43	n/a	NaN	NaN	NaN	NaN	NaN	NaN	NaN	NaN	NaN	NaN	NaN
707.532924229105	2.01628235680982	9	object_onset	2	switch	1.08747413762351	19	71	-52	n/a	NaN	NaN	NaN	NaN	NaN	NaN	NaN	NaN	NaN	NaN	NaN
714.49788658641	2.01612491876585	5	object_onset	2	stay	0.524785670536077	3	71	-68	n/a	NaN	NaN	NaN	NaN	NaN	NaN	NaN	NaN	NaN	NaN	NaN
721.262771760637	2.01605515962001	5	object_onset	1	switch	0	71	3	68	n/a	NaN	NaN	NaN	NaN	NaN	NaN	NaN	NaN	NaN	NaN	NaN
726.161493984575	2.01601356011815	8	object_onset	2	switch	0.853814968245462	16	44	-28	n/a	NaN	NaN	NaN	NaN	NaN	NaN	NaN	NaN	NaN	NaN	NaN
731.210188736848	2.01613035867922	9	object_onset	1	switch	0.36	71	19	52	n/a	NaN	NaN	NaN	NaN	NaN	NaN	NaN	NaN	NaN	NaN	NaN
736.508807090111	2.01610859896755	9	object_onset	2	switch	0	19	71	-52	n/a	NaN	NaN	NaN	NaN	NaN	NaN	NaN	NaN	NaN	NaN	NaN
743.056941049406	9.61428769369377	9	choice	2	n/a	NaN	NaN	NaN	NaN	d	1	3	0.648999229583518	1.08747413762351	31.2285063350093	25.481413184806	59.8748977484675	70.1156602958224	752.665700172074	9.60875912266783	1
757.369991222513	2.01612203882542	12	object_onset	1	switch	0.458911756223351	18	72	-54	n/a	NaN	NaN	NaN	NaN	NaN	NaN	NaN	NaN	NaN	NaN	NaN
764.201543724746	21.1277926451294	12	choice	1	n/a	NaN	NaN	NaN	NaN	d	9	1	0.458911756223351	0.763675323681471	52.9909262905921	17.1247340052303	53.3206308004961	27.8392176156901	785.318403386336	21.1168596615898	1
789.045034957991	2.0160266799503	7	object_onset	1	stay	0.9	90	2	88	n/a	NaN	NaN	NaN	NaN	NaN	NaN	NaN	NaN	NaN	NaN	NaN
795.060092690052	2.01613227865892	7	object_onset	2	switch	0	2	90	-88	n/a	NaN	NaN	NaN	NaN	NaN	NaN	NaN	NaN	NaN	NaN	NaN
800.808571989008	2.01615339843556	9	object_onset	1	switch	0.458911756223351	71	19	52	n/a	NaN	NaN	NaN	NaN	NaN	NaN	NaN	NaN	NaN	NaN	NaN
806.940308584948	2.01614059857093	3	object_onset	2	switch	0.648999229583518	50	11	39	n/a	NaN	NaN	NaN	NaN	NaN	NaN	NaN	NaN	NaN	NaN	NaN
813.87185471924	2.01614027860342	6	object_onset	2	stay	0.458911756223351	13	44	-31	n/a	NaN	NaN	NaN	NaN	NaN	NaN	NaN	NaN	NaN	NaN	NaN
819.0705293598	21.9775257204892	6	choice	2	n/a	NaN	NaN	NaN	NaN	d	11	12	0.648999229583518	0.9	59.1256399192012	86.800615681217	25.70978325616	40.5840886391862	841.041296124633	21.9707667648327	1
844.163884354755	2.0161684381892	9	object_onset	2	stay	0.458911756223351	19	71	-52	n/a	NaN	NaN	NaN	NaN	NaN	NaN	NaN	NaN	NaN	NaN	NaN
851.761917851283	2.01602540002204	3	object_onset	2	stay	0.648999229583518	50	11	39	n/a	NaN	NaN	NaN	NaN	NaN	NaN	NaN	NaN	NaN	NaN	NaN
857.377088413923	20.4946440668427	3	choice	2	n/a	NaN	NaN	NaN	NaN	v	6	9	0.458911756223351	0.648999229583518	37.0335154537144	31.2285063350093	32.5937547140354	59.8748977484675	877.862379957514	20.4852915435913	-1
882.670446352859	2.0161805980606	12	object_onset	1	switch	0.458911756223351	18	72	-54	n/a	NaN	NaN	NaN	NaN	NaN	NaN	NaN	NaN	NaN	NaN	NaN
890.168518856924	2.01613739860477	6	object_onset	1	stay	0.648999229583518	44	13	31	n/a	NaN	NaN	NaN	NaN	NaN	NaN	NaN	NaN	NaN	NaN	NaN
896.600126270438	2.01613643864403	3	object_onset	1	stay	0.458911756223351	11	50	-39	n/a	NaN	NaN	NaN	NaN	NaN	NaN	NaN	NaN	NaN	NaN	NaN
903.548305797158	2.01617771812016	4	object_onset	1	stay	0.763675323681471	14	2	12	n/a	NaN	NaN	NaN	NaN	NaN	NaN	NaN	NaN	NaN	NaN	NaN
909.496751880564	2.01614027854521	8	object_onset	2	switch	1.26	16	44	-28	n/a	NaN	NaN	NaN	NaN	NaN	NaN	NaN	NaN	NaN	NaN	NaN
913.62900239008	10.6472143227584	8	choice	2	n/a	NaN	NaN	NaN	NaN	v	2	11	1.20747670784989	0.853814968245462	0	83.8378807534661	38.7004681213976	40.5840886391862	924.262981038017	10.6339786479366	1
927.758657091996	2.01614059857093	6	object_onset	2	stay	0.814984662432368	13	44	-31	n/a	NaN	NaN	NaN	NaN	NaN	NaN	NaN	NaN	NaN	NaN	NaN
933.123891893832	2.01613259868464	8	object_onset	2	stay	0.814984662432368	16	44	-28	n/a	NaN	NaN	NaN	NaN	NaN	NaN	NaN	NaN	NaN	NaN	NaN
938.005870966765	2.01621259766398	3	object_onset	2	stay	0.9	50	11	39	n/a	NaN	NaN	NaN	NaN	NaN	NaN	NaN	NaN	NaN	NaN	NaN
942.987970390124	2.01617291820003	10	object_onset	2	stay	0.9	50	5	45	n/a	NaN	NaN	NaN	NaN	NaN	NaN	NaN	NaN	NaN	NaN	NaN
950.236104253447	2.01611723884707	9	object_onset	1	switch	0.763675323681471	71	19	52	n/a	NaN	NaN	NaN	NaN	NaN	NaN	NaN	NaN	NaN	NaN	NaN
955.451259968278	9.93083158321679	9	choice	1	n/a	NaN	NaN	NaN	NaN	v	4	1	0.9	1.08747413762351	56.8490675010204	70.1156602958224	17.3313068341025	25.481413184806	965.373529418372	9.92226945009315	1
968.831240506144	2.01608171931002	4	object_onset	1	stay	0.9	14	2	12	n/a	NaN	NaN	NaN	NaN	NaN	NaN	NaN	NaN	NaN	NaN	NaN
975.129675821634	2.01603499992052	2	object_onset	1	stay	0.569209978830308	5	16	-11	n/a	NaN	NaN	NaN	NaN	NaN	NaN	NaN	NaN	NaN	NaN	NaN
981.394567235839	2.01614507846534	10	object_onset	1	stay	1.26	5	50	-45	n/a	NaN	NaN	NaN	NaN	NaN	NaN	NaN	NaN	NaN	NaN	NaN
986.426571636403	2.01618347800104	8	object_onset	2	switch	0.569209978830308	16	44	-28	n/a	NaN	NaN	NaN	NaN	NaN	NaN	NaN	NaN	NaN	NaN	NaN
991.508499893942	2.01622571749613	11	object_onset	2	stay	0.853814968245462	100	3	97	n/a	NaN	NaN	NaN	NaN	NaN	NaN	NaN	NaN	NaN	NaN	NaN
997.257132471015	2.01608267927077	5	object_onset	2	stay	1.20747670784989	3	71	-68	n/a	NaN	NaN	NaN	NaN	NaN	NaN	NaN	NaN	NaN	NaN	NaN
1001.47267410107	6.83151314267889	5	choice	2	n/a	NaN	NaN	NaN	NaN	v	3	8	0.853814968245462	0.814984662432368	13.5499782611421	47.6207587871056	27.2811430344322	59.8748977484675	1008.28437821096	6.81170410988852	1
1013.90273785387	2.01614539849106	9	object_onset	1	switch	0.524785670536077	71	19	52	n/a	NaN	NaN	NaN	NaN	NaN	NaN	NaN	NaN	NaN	NaN	NaN
1021.61734813551	2.01617963809986	2	object_onset	2	switch	0.9	16	5	11	n/a	NaN	NaN	NaN	NaN	NaN	NaN	NaN	NaN	NaN	NaN	NaN
1027.26591316139	2.01612939871848	2	object_onset	2	stay	0	16	5	11	n/a	NaN	NaN	NaN	NaN	NaN	NaN	NaN	NaN	NaN	NaN	NaN
1033.04766468517	2.01616523822304	5	object_onset	1	switch	0.853814968245462	71	3	68	n/a	NaN	NaN	NaN	NaN	NaN	NaN	NaN	NaN	NaN	NaN	NaN
1038.81284617569	2.01613675861154	2	object_onset	2	switch	0.853814968245462	16	5	11	n/a	NaN	NaN	NaN	NaN	NaN	NaN	NaN	NaN	NaN	NaN	NaN
1043.14508106938	19.6114899686072	2	choice	2	n/a	NaN	NaN	NaN	NaN	v	5	12	0.853814968245462	0.814984662432368	13.5499782611421	56.1629049914503	65.9816111558298	12.9906848652376	1062.75116502546	19.6060839560814	1
1066.98880653968	2.01601292018313	12	object_onset	2	stay	0.814984662432368	72	18	54	n/a	NaN	NaN	NaN	NaN	NaN	NaN	NaN	NaN	NaN	NaN	NaN
1072.50405066943	2.01610507903388	11	object_onset	2	stay	0.36	100	3	97	n/a	NaN	NaN	NaN	NaN	NaN	NaN	NaN	NaN	NaN	NaN	NaN
1078.15258017584	2.01612523873337	4	object_onset	2	stay	1.27914033631967	2	14	-12	n/a	NaN	NaN	NaN	NaN	NaN	NaN	NaN	NaN	NaN	NaN	NaN
1085.95052221749	2.01607499941019	12	object_onset	2	stay	1.08747413762351	72	18	54	n/a	NaN	NaN	NaN	NaN	NaN	NaN	NaN	NaN	NaN	NaN	NaN
1091.69898487668	2.01613707863726	8	object_onset	2	stay	0.524785670536077	16	44	-28	n/a	NaN	NaN	NaN	NaN	NaN	NaN	NaN	NaN	NaN	NaN	NaN
1099.16369427711	2.01612683874555	7	object_onset	2	stay	0.524785670536077	2	90	-88	n/a	NaN	NaN	NaN	NaN	NaN	NaN	NaN	NaN	NaN	NaN	NaN
1105.09547112853	2.01613771863049	1	object_onset	2	stay	1.53792067415716	44	1	43	n/a	NaN	NaN	NaN	NaN	NaN	NaN	NaN	NaN	NaN	NaN	NaN
1110.96060433169	2.01615979830967	12	object_onset	1	switch	0.763675323681471	18	72	-54	n/a	NaN	NaN	NaN	NaN	NaN	NaN	NaN	NaN	NaN	NaN	NaN
1117.29230035213	2.0161399585777	1	object_onset	1	stay	0.763675323681471	1	44	-43	n/a	NaN	NaN	NaN	NaN	NaN	NaN	NaN	NaN	NaN	NaN	NaN
1123.20742045139	2.01614219858311	3	object_onset	2	switch	0.458911756223351	50	11	39	n/a	NaN	NaN	NaN	NaN	NaN	NaN	NaN	NaN	NaN	NaN	NaN
1128.83923816634	2.01617227814859	1	object_onset	2	stay	0.458911756223351	44	1	43	n/a	NaN	NaN	NaN	NaN	NaN	NaN	NaN	NaN	NaN	NaN	NaN
1135.35419525969	2.01613259862643	4	object_onset	1	switch	1.08747413762351	14	2	12	n/a	NaN	NaN	NaN	NaN	NaN	NaN	NaN	NaN	NaN	NaN	NaN
1141.51929047925	7.94788065046305	4	choice	1	n/a	NaN	NaN	NaN	NaN	v	12	8	1.08747413762351	1.26	3.85814121042835	29.5679244665883	70.6519376345985	14.4890326431482	1149.44886831811	7.92957783886231	1
1155.23231646069	2.01618283806602	10	object_onset	2	switch	1.53792067415716	50	5	45	n/a	NaN	NaN	NaN	NaN	NaN	NaN	NaN	NaN	NaN	NaN	NaN
1160.88085300697	2.01613163866568	4	object_onset	2	stay	1.53792067415716	2	14	-12	n/a	NaN	NaN	NaN	NaN	NaN	NaN	NaN	NaN	NaN	NaN	NaN
1166.87926294684	4.8487334077945	4	choice	2	n/a	NaN	NaN	NaN	NaN	d	11	6	0.458911756223351	1.27914033631967	11.5262977153973	98.3269133966143	29.5679244665883	11.0161641725979	1171.70913994993	4.82987700309604	1
1175.01047090936	2.01613611861831	9	object_onset	2	stay	0.9	19	71	-52	n/a	NaN	NaN	NaN	NaN	NaN	NaN	NaN	NaN	NaN	NaN	NaN
1180.20914042991	2.01613547868328	2	object_onset	2	stay	0.9	16	5	11	n/a	NaN	NaN	NaN	NaN	NaN	NaN	NaN	NaN	NaN	NaN	NaN
1185.25784062216	2.0161156388931	12	object_onset	1	switch	0.814984662432368	18	72	-54	n/a	NaN	NaN	NaN	NaN	NaN	NaN	NaN	NaN	NaN	NaN	NaN
1191.17290312221	2.01612651871983	5	object_onset	1	stay	0.9	71	3	68	n/a	NaN	NaN	NaN	NaN	NaN	NaN	NaN	NaN	NaN	NaN	NaN
1195.97167619347	8.56441183615243	5	choice	1	n/a	NaN	NaN	NaN	NaN	v	12	2	0.853814968245462	0.9	65.9816111558298	52.9909262905921	13.5499782611421	69.7128832525924	1204.52597551583	8.55429932236439	-1
1208.43507361028	2.01613419863861	6	object_onset	1	stay	0.36	44	13	31	n/a	NaN	NaN	NaN	NaN	NaN	NaN	NaN	NaN	NaN	NaN	NaN
1212.50053455337	6.16515057889046	6	choice	1	n/a	NaN	NaN	NaN	NaN	d	9	7	0.458911756223351	0.763675323681471	27.2811430344321	46.7766790247836	5.80500911870512	11.3101527179681	1218.66008136218	6.15954680880532	1
1222.79793916171	2.01603115996113	12	object_onset	1	stay	0.648999229583518	18	72	-54	n/a	NaN	NaN	NaN	NaN	NaN	NaN	NaN	NaN	NaN	NaN	NaN
1228.86302570946	2.01612523873337	9	object_onset	2	switch	0.458911756223351	19	71	-52	n/a	NaN	NaN	NaN	NaN	NaN	NaN	NaN	NaN	NaN	NaN	NaN
1236.47772939794	2.01601164019667	11	object_onset	1	switch	0.814984662432368	3	100	-97	n/a	NaN	NaN	NaN	NaN	NaN	NaN	NaN	NaN	NaN	NaN	NaN
1242.1595660086	2.01613867859123	6	object_onset	2	switch	0.9	13	44	-31	n/a	NaN	NaN	NaN	NaN	NaN	NaN	NaN	NaN	NaN	NaN	NaN
1247.02491584909	2.01614539849106	4	object_onset	1	switch	0.458911756223351	14	2	12	n/a	NaN	NaN	NaN	NaN	NaN	NaN	NaN	NaN	NaN	NaN	NaN
1252.20690397784	2.01612971868599	11	object_onset	1	stay	1.27914033631967	3	100	-97	n/a	NaN	NaN	NaN	NaN	NaN	NaN	NaN	NaN	NaN	NaN	NaN
