onset	duration	object	trial_type	map	stayswitch	distance	value	counterfactual_value	value_diff	choicetype	object1	object2	chosen_distance	unchosen_distance	chosen_value	unchosen_value	counterfactual_chosen_value	counterfactual_unchosen_value	button	response_time	cr
8.77268097468186	2.01622939330991	4	object_onset	1	n/a	NaN	NaN	NaN	NaN	n/a	NaN	NaN	NaN	NaN	NaN	NaN	NaN	NaN	NaN	NaN	NaN
14.1213708504802	3.71572625869885	4	choice	1	n/a	NaN	NaN	NaN	NaN	d	7	12	1.08747413762351	1.08747413762351	76.3446034913719	3.85814121042835	0.216144997429269	70.6519376345985	17.8162629292347	3.69489207875449	1
21.0362965355162	2.01615835342091	3	object_onset	2	switch	0.763675323681471	50	11	39	n/a	NaN	NaN	NaN	NaN	NaN	NaN	NaN	NaN	NaN	NaN	NaN
28.751041677082	2.01608411362395	7	object_onset	1	switch	1.08747413762351	90	2	88	n/a	NaN	NaN	NaN	NaN	NaN	NaN	NaN	NaN	NaN	NaN	NaN
33.4163981608581	5.44876798754558	7	choice	1	n/a	NaN	NaN	NaN	NaN	v	6	10	0.763675323681471	1.08747413762351	46.7766790247836	85.4771471461812	11.3101527179681	48.3436681716825	38.8453655653866	5.42896740452852	1
44.1305020241998	2.01613371353596	3	object_onset	2	switch	1.08747413762351	50	11	39	n/a	NaN	NaN	NaN	NaN	NaN	NaN	NaN	NaN	NaN	NaN	NaN
48.6126695955172	2.74931272200774	3	choice	2	n/a	NaN	NaN	NaN	NaN	v	7	2	0.36	1.08747413762351	34.0707805259635	48.3436681716825	6.10671340736224	79.370433738819	51.3468156411545	2.73414604563732	1
54.3612178397598	2.01615739346016	9	object_onset	2	stay	0.648999229583518	19	71	-52	n/a	NaN	NaN	NaN	NaN	NaN	NaN	NaN	NaN	NaN	NaN	NaN
59.5765791394515	2.01607227372006	6	object_onset	1	switch	0.458911756223351	44	13	31	n/a	NaN	NaN	NaN	NaN	NaN	NaN	NaN	NaN	NaN	NaN	NaN
66.50818541646	2.01614619349129	7	object_onset	2	switch	0.763675323681471	2	90	-88	n/a	NaN	NaN	NaN	NaN	NaN	NaN	NaN	NaN	NaN	NaN	NaN
73.4897563495906	2.01612699346151	8	object_onset	2	stay	0.524785670536077	16	44	-28	n/a	NaN	NaN	NaN	NaN	NaN	NaN	NaN	NaN	NaN	NaN	NaN
79.0716906735906	2.01615707343444	3	object_onset	1	switch	0.9	11	50	-39	n/a	NaN	NaN	NaN	NaN	NaN	NaN	NaN	NaN	NaN	NaN	NaN
83.6205454128794	3.18278987356462	3	choice	1	n/a	NaN	NaN	NaN	NaN	v	5	8	0.814984662432368	0.9	59.8748977484675	32.5937547140353	47.6207587871056	34.0707805259635	86.7845135806128	3.1639681677334	-1
91.0020031942986	2.01616443344392	1	object_onset	1	stay	0.458911756223351	1	44	-43	n/a	NaN	NaN	NaN	NaN	NaN	NaN	NaN	NaN	NaN	NaN	NaN
97.883466575644	2.01629979303107	3	object_onset	1	stay	0.458911756223351	11	50	-39	n/a	NaN	NaN	NaN	NaN	NaN	NaN	NaN	NaN	NaN	NaN	NaN
105.198395908694	2.01620635332074	3	object_onset	2	switch	0	50	11	39	n/a	NaN	NaN	NaN	NaN	NaN	NaN	NaN	NaN	NaN	NaN	NaN
110.547040024539	2.01616699341685	7	object_onset	2	stay	1.08747413762351	2	90	-88	n/a	NaN	NaN	NaN	NaN	NaN	NaN	NaN	NaN	NaN	NaN	NaN
115.445735036279	2.01624347327743	10	object_onset	2	stay	1.08747413762351	50	5	45	n/a	NaN	NaN	NaN	NaN	NaN	NaN	NaN	NaN	NaN	NaN	NaN
122.227471024962	2.01605307369027	4	object_onset	1	switch	1.53792067415716	14	2	12	n/a	NaN	NaN	NaN	NaN	NaN	NaN	NaN	NaN	NaN	NaN	NaN
127.276152484701	2.01617275341414	1	object_onset	2	switch	1.08747413762351	44	1	43	n/a	NaN	NaN	NaN	NaN	NaN	NaN	NaN	NaN	NaN	NaN	NaN
132.908070344827	2.01616539340466	8	object_onset	1	switch	1.27914033631967	44	16	28	n/a	NaN	NaN	NaN	NaN	NaN	NaN	NaN	NaN	NaN	NaN	NaN
140.389516638243	2.01615227351431	11	object_onset	1	stay	0.853814968245462	3	100	-97	n/a	NaN	NaN	NaN	NaN	NaN	NaN	NaN	NaN	NaN	NaN	NaN
147.804311283631	2.01619163330179	10	object_onset	2	switch	0.524785670536077	50	5	45	n/a	NaN	NaN	NaN	NaN	NaN	NaN	NaN	NaN	NaN	NaN	NaN
153.33628543152	2.01615163346287	9	object_onset	2	stay	0.763675323681471	19	71	-52	n/a	NaN	NaN	NaN	NaN	NaN	NaN	NaN	NaN	NaN	NaN	NaN
158.501541915582	3.38255985826254	9	choice	2	n/a	NaN	NaN	NaN	NaN	v	3	11	0.648999229583518	0.814984662432368	31.2285063350093	80.9956065625119	59.8748977484675	67.8652316736184	161.869686775375	3.36814485979266	1
165.000014399993	2.01613147358876	9	object_onset	1	switch	0	71	19	52	n/a	NaN	NaN	NaN	NaN	NaN	NaN	NaN	NaN	NaN	NaN	NaN
171.181837236392	3.54905505862553	9	choice	1	n/a	NaN	NaN	NaN	NaN	d	2	3	0.648999229583518	0.9	59.8748977484675	65.9816111558297	31.2285063350093	2.84227419095423	174.720047206269	3.53820996987633	1
178.313204537961	2.01624507328961	1	object_onset	2	switch	1.08747413762351	44	1	43	n/a	NaN	NaN	NaN	NaN	NaN	NaN	NaN	NaN	NaN	NaN	NaN
185.11156831868	2.18278859357815	1	choice	2	n/a	NaN	NaN	NaN	NaN	d	2	10	0.524785670536077	1.08747413762351	28.3236873757602	5.74709315020331	4.13404913999263	4.13404913999263	187.280389912543	2.16882159386296	1
190.526874962612	2.01614779350348	2	object_onset	2	stay	0.524785670536077	16	5	11	n/a	NaN	NaN	NaN	NaN	NaN	NaN	NaN	NaN	NaN	NaN	NaN
196.608669287059	2.01619547337759	9	object_onset	2	stay	0.9	19	71	-52	n/a	NaN	NaN	NaN	NaN	NaN	NaN	NaN	NaN	NaN	NaN	NaN
204.207023723866	2.01591867406387	4	object_onset	2	stay	0.9	2	14	-12	n/a	NaN	NaN	NaN	NaN	NaN	NaN	NaN	NaN	NaN	NaN	NaN
209.105511696194	2.01619611331262	1	object_onset	2	stay	1.08747413762351	44	1	43	n/a	NaN	NaN	NaN	NaN	NaN	NaN	NaN	NaN	NaN	NaN	NaN
215.720551524893	2.01616315345746	7	object_onset	1	switch	1.53792067415716	90	2	88	n/a	NaN	NaN	NaN	NaN	NaN	NaN	NaN	NaN	NaN	NaN	NaN
223.251939754467	2.01631035306491	10	object_onset	1	stay	1.08747413762351	5	50	-45	n/a	NaN	NaN	NaN	NaN	NaN	NaN	NaN	NaN	NaN	NaN	NaN
230.650106607703	2.01613851357251	12	object_onset	1	stay	0.458911756223351	18	72	-54	n/a	NaN	NaN	NaN	NaN	NaN	NaN	NaN	NaN	NaN	NaN	NaN
235.565515491297	2.01619003340602	8	object_onset	2	switch	0.524785670536077	16	44	-28	n/a	NaN	NaN	NaN	NaN	NaN	NaN	NaN	NaN	NaN	NaN	NaN
240.714209463098	2.01619355333969	1	object_onset	1	switch	1.27914033631967	1	44	-43	n/a	NaN	NaN	NaN	NaN	NaN	NaN	NaN	NaN	NaN	NaN	NaN
246.312833019067	2.01612955355085	2	object_onset	1	stay	0.524785670536077	5	16	-11	n/a	NaN	NaN	NaN	NaN	NaN	NaN	NaN	NaN	NaN	NaN	NaN
252.81120630377	2.01613115356304	9	object_onset	1	stay	0.9	71	19	52	n/a	NaN	NaN	NaN	NaN	NaN	NaN	NaN	NaN	NaN	NaN	NaN
258.309816387715	2.01611899363343	6	object_onset	2	switch	0.458911756223351	13	44	-31	n/a	NaN	NaN	NaN	NaN	NaN	NaN	NaN	NaN	NaN	NaN	NaN
263.241888903431	2.01615771348588	1	object_onset	2	stay	0.9	44	1	43	n/a	NaN	NaN	NaN	NaN	NaN	NaN	NaN	NaN	NaN	NaN	NaN
268.823827387416	2.01614587346558	5	object_onset	1	switch	1.26	71	3	68	n/a	NaN	NaN	NaN	NaN	NaN	NaN	NaN	NaN	NaN	NaN	NaN
275.338846384198	2.01615515339654	7	object_onset	1	stay	0.569209978830308	90	2	88	n/a	NaN	NaN	NaN	NaN	NaN	NaN	NaN	NaN	NaN	NaN	NaN
282.836918869754	2.01616475335322	5	object_onset	1	stay	0.569209978830308	71	3	68	n/a	NaN	NaN	NaN	NaN	NaN	NaN	NaN	NaN	NaN	NaN	NaN
287.10239170515	7.44827006896958	5	choice	1	n/a	NaN	NaN	NaN	NaN	v	12	8	0.853814968245462	0.9	27.2811430344322	52.9909262905921	13.5499782611421	69.7128832525924	294.532271427102	7.4298797219526	1
299.39939820976	2.01609403360635	2	object_onset	1	stay	0.853814968245462	5	16	-11	n/a	NaN	NaN	NaN	NaN	NaN	NaN	NaN	NaN	NaN	NaN	NaN
304.364815909415	2.01616027345881	12	object_onset	1	stay	0.814984662432368	18	72	-54	n/a	NaN	NaN	NaN	NaN	NaN	NaN	NaN	NaN	NaN	NaN	NaN
308.696972712758	2.166236321209	12	choice	1	n/a	NaN	NaN	NaN	NaN	d	4	9	0.458911756223351	1.08747413762351	52.9909262905921	3.85814121042835	53.3206308004961	70.6519376345985	310.852230825578	2.15525811281987	1
314.445641916594	2.01616507349536	7	object_onset	2	switch	0.9	2	90	-88	n/a	NaN	NaN	NaN	NaN	NaN	NaN	NaN	NaN	NaN	NaN	NaN
320.244062337093	5.44862078805454	7	choice	2	n/a	NaN	NaN	NaN	NaN	d	10	2	1.08747413762351	1.27914033631967	48.3436681716825	14.272887645719	85.4771471461812	85.4771471461812	325.672910702066	5.42884836497251	1
331.507989256992	2.01624923327472	6	object_onset	1	switch	0.763675323681471	44	13	31	n/a	NaN	NaN	NaN	NaN	NaN	NaN	NaN	NaN	NaN	NaN	NaN
337.356542013236	2.01614939339925	1	object_onset	2	switch	0.9	44	1	43	n/a	NaN	NaN	NaN	NaN	NaN	NaN	NaN	NaN	NaN	NaN	NaN
344.538028530544	2.01617563341279	11	object_onset	2	stay	0.569209978830308	100	3	97	n/a	NaN	NaN	NaN	NaN	NaN	NaN	NaN	NaN	NaN	NaN	NaN
351.469636727474	2.01613115356304	5	object_onset	1	switch	1.20747670784989	71	3	68	n/a	NaN	NaN	NaN	NaN	NaN	NaN	NaN	NaN	NaN	NaN	NaN
357.23470460414	2.01630811300129	9	object_onset	1	stay	0.524785670536077	71	19	52	n/a	NaN	NaN	NaN	NaN	NaN	NaN	NaN	NaN	NaN	NaN	NaN
362.966692575952	2.01617307343986	3	object_onset	1	stay	0.648999229583518	11	50	-39	n/a	NaN	NaN	NaN	NaN	NaN	NaN	NaN	NaN	NaN	NaN	NaN
370.564794853446	2.01614907348994	6	object_onset	2	switch	0.458911756223351	13	44	-31	n/a	NaN	NaN	NaN	NaN	NaN	NaN	NaN	NaN	NaN	NaN	NaN
377.712900026934	2.01624571310822	12	object_onset	2	stay	0.648999229583518	72	18	54	n/a	NaN	NaN	NaN	NaN	NaN	NaN	NaN	NaN	NaN	NaN	NaN
383.544729311252	2.0161621933803	1	object_onset	1	switch	0.763675323681471	1	44	-43	n/a	NaN	NaN	NaN	NaN	NaN	NaN	NaN	NaN	NaN	NaN	NaN
388.060413586092	2.33273760171141	1	choice	1	n/a	NaN	NaN	NaN	NaN	v	12	7	0.763675323681471	1.53792067415716	17.1247340052303	89.6111962861739	27.8392176156901	42.5965750214792	390.385892008664	2.3254784225719	1
395.341903655324	2.01615643349942	4	object_onset	2	switch	1.08747413762351	2	14	-12	n/a	NaN	NaN	NaN	NaN	NaN	NaN	NaN	NaN	NaN	NaN	NaN
400.273882411304	2.01622747327201	5	object_onset	2	stay	0.524785670536077	3	71	-68	n/a	NaN	NaN	NaN	NaN	NaN	NaN	NaN	NaN	NaN	NaN	NaN
405.206079726573	2.01616443344392	6	object_onset	1	switch	0.36	44	13	31	n/a	NaN	NaN	NaN	NaN	NaN	NaN	NaN	NaN	NaN	NaN	NaN
412.404233075795	2.01621787331533	10	object_onset	1	stay	1.08747413762351	5	50	-45	n/a	NaN	NaN	NaN	NaN	NaN	NaN	NaN	NaN	NaN	NaN	NaN
420.019008905278	2.01613563357387	9	object_onset	1	stay	0.763675323681471	71	19	52	n/a	NaN	NaN	NaN	NaN	NaN	NaN	NaN	NaN	NaN	NaN	NaN
425.534205181524	2.01622491329908	5	object_onset	1	stay	0.524785670536077	71	3	68	n/a	NaN	NaN	NaN	NaN	NaN	NaN	NaN	NaN	NaN	NaN	NaN
431.23281436949	2.01619195344392	4	object_onset	2	switch	0.524785670536077	2	14	-12	n/a	NaN	NaN	NaN	NaN	NaN	NaN	NaN	NaN	NaN	NaN	NaN
436.131614340935	5.49860176409129	4	choice	2	n/a	NaN	NaN	NaN	NaN	v	8	9	0.9	1.26	17.3313068341025	14.4890326431482	56.8490675010204	29.5679244665883	441.625169079518	5.49355473858304	-1
446.795558028854	2.0161561134737	5	object_onset	1	switch	0.524785670536077	71	3	68	n/a	NaN	NaN	NaN	NaN	NaN	NaN	NaN	NaN	NaN	NaN	NaN
452.377470272942	2.01616091339383	5	object_onset	2	switch	0	3	71	-68	n/a	NaN	NaN	NaN	NaN	NaN	NaN	NaN	NaN	NaN	NaN	NaN
457.226271668333	2.01617723342497	1	object_onset	1	switch	1.26	1	44	-43	n/a	NaN	NaN	NaN	NaN	NaN	NaN	NaN	NaN	NaN	NaN	NaN
463.591348696966	2.01612891349941	10	object_onset	1	stay	1.08747413762351	5	50	-45	n/a	NaN	NaN	NaN	NaN	NaN	NaN	NaN	NaN	NaN	NaN	NaN
468.939992492902	2.01616667339113	3	object_onset	1	stay	0.9	11	50	-39	n/a	NaN	NaN	NaN	NaN	NaN	NaN	NaN	NaN	NaN	NaN	NaN
475.92154166603	2.0160831536632	7	object_onset	2	switch	1.08747413762351	2	90	-88	n/a	NaN	NaN	NaN	NaN	NaN	NaN	NaN	NaN	NaN	NaN	NaN
483.619631815469	2.01615195348859	6	object_onset	2	stay	0.763675323681471	13	44	-31	n/a	NaN	NaN	NaN	NaN	NaN	NaN	NaN	NaN	NaN	NaN	NaN
489.00158399553	2.01618747331668	8	object_onset	1	switch	0.814984662432368	44	16	28	n/a	NaN	NaN	NaN	NaN	NaN	NaN	NaN	NaN	NaN	NaN	NaN
496.799647297012	2.01614939351566	8	object_onset	1	stay	0	44	16	28	n/a	NaN	NaN	NaN	NaN	NaN	NaN	NaN	NaN	NaN	NaN	NaN
502.564876133227	2.01610299362801	11	object_onset	2	switch	0.853814968245462	100	3	97	n/a	NaN	NaN	NaN	NaN	NaN	NaN	NaN	NaN	NaN	NaN	NaN
509.063134858268	2.01622491318267	9	object_onset	1	switch	0.814984662432368	71	19	52	n/a	NaN	NaN	NaN	NaN	NaN	NaN	NaN	NaN	NaN	NaN	NaN
516.244692095323	2.01617019344121	8	object_onset	2	switch	0.36	16	44	-28	n/a	NaN	NaN	NaN	NaN	NaN	NaN	NaN	NaN	NaN	NaN	NaN
522.859585684375	4.5822949630674	8	choice	2	n/a	NaN	NaN	NaN	NaN	v	1	6	1.27914033631967	0.814984662432368	28.3236873757602	2.96273492775089	42.8345172613902	7.105427357601e-15	527.430418280419	4.57083259604406	-1
531.074218666297	2.01622683322057	11	object_onset	1	switch	0.853814968245462	3	100	-97	n/a	NaN	NaN	NaN	NaN	NaN	NaN	NaN	NaN	NaN	NaN	NaN
537.772604174912	2.01616507349536	9	object_onset	2	switch	0.814984662432368	19	71	-52	n/a	NaN	NaN	NaN	NaN	NaN	NaN	NaN	NaN	NaN	NaN	NaN
542.721394402441	2.01618267339654	2	object_onset	1	switch	0.9	5	16	-11	n/a	NaN	NaN	NaN	NaN	NaN	NaN	NaN	NaN	NaN	NaN	NaN
549.019804422976	2.01615867344663	10	object_onset	2	switch	1.26	50	5	45	n/a	NaN	NaN	NaN	NaN	NaN	NaN	NaN	NaN	NaN	NaN	NaN
555.184766187915	2.01629979303107	2	object_onset	1	switch	1.26	5	16	-11	n/a	NaN	NaN	NaN	NaN	NaN	NaN	NaN	NaN	NaN	NaN	NaN
560.216980175115	2.01605307380669	3	object_onset	2	switch	0.36	50	11	39	n/a	NaN	NaN	NaN	NaN	NaN	NaN	NaN	NaN	NaN	NaN	NaN
567.598377796705	2.01624923315831	3	object_onset	2	stay	0	50	11	39	n/a	NaN	NaN	NaN	NaN	NaN	NaN	NaN	NaN	NaN	NaN	NaN
572.713764024433	2.01618619333021	12	object_onset	2	stay	0.458911756223351	72	18	54	n/a	NaN	NaN	NaN	NaN	NaN	NaN	NaN	NaN	NaN	NaN	NaN
579.6787711652	2.01611131359823	9	object_onset	2	stay	0.458911756223351	19	71	-52	n/a	NaN	NaN	NaN	NaN	NaN	NaN	NaN	NaN	NaN	NaN	NaN
584.994024017244	2.01614939351566	12	object_onset	2	stay	0.458911756223351	72	18	54	n/a	NaN	NaN	NaN	NaN	NaN	NaN	NaN	NaN	NaN	NaN	NaN
590.875904677436	2.7659382740967	12	choice	2	n/a	NaN	NaN	NaN	NaN	d	9	7	0.458911756223351	0.9	53.3206308004961	70.4357926371693	52.9909262905921	72.4864622809436	593.628070831182	2.75216615374666	1
597.340824938496	2.01624923315831	2	object_onset	2	stay	0.814984662432368	16	5	11	n/a	NaN	NaN	NaN	NaN	NaN	NaN	NaN	NaN	NaN	NaN	NaN
603.7226263989	2.01616283343174	10	object_onset	2	stay	1.26	50	5	45	n/a	NaN	NaN	NaN	NaN	NaN	NaN	NaN	NaN	NaN	NaN	NaN
609.38787344296	2.01605883380398	7	object_onset	1	switch	1.08747413762351	90	2	88	n/a	NaN	NaN	NaN	NaN	NaN	NaN	NaN	NaN	NaN	NaN	NaN
614.81986963877	2.01615227351431	8	object_onset	2	switch	0.524785670536077	16	44	-28	n/a	NaN	NaN	NaN	NaN	NaN	NaN	NaN	NaN	NaN	NaN	NaN
622.068039484089	2.01615291344933	10	object_onset	2	stay	0.569209978830308	50	5	45	n/a	NaN	NaN	NaN	NaN	NaN	NaN	NaN	NaN	NaN	NaN	NaN
628.249786800705	2.01615547342226	12	object_onset	1	switch	0.458911756223351	18	72	-54	n/a	NaN	NaN	NaN	NaN	NaN	NaN	NaN	NaN	NaN	NaN	NaN
633.915018804837	2.01616539340466	10	object_onset	1	stay	0.458911756223351	5	50	-45	n/a	NaN	NaN	NaN	NaN	NaN	NaN	NaN	NaN	NaN	NaN	NaN
640.329952649772	2.01627707306761	2	object_onset	1	stay	1.26	5	16	-11	n/a	NaN	NaN	NaN	NaN	NaN	NaN	NaN	NaN	NaN	NaN	NaN
646.861745678238	5.31536741170567	2	choice	1	n/a	NaN	NaN	NaN	NaN	v	1	5	0.524785670536077	0.853814968245462	4.13404913999263	65.9816111558298	28.3236873757602	13.5499782611421	652.157279867097	5.29553418885916	1
655.20964739623	2.01616091351025	7	object_onset	2	switch	1.27914033631967	2	90	-88	n/a	NaN	NaN	NaN	NaN	NaN	NaN	NaN	NaN	NaN	NaN	NaN
660.308355911984	2.01622171327472	4	object_onset	2	stay	1.08747413762351	2	14	-12	n/a	NaN	NaN	NaN	NaN	NaN	NaN	NaN	NaN	NaN	NaN	NaN
665.873513644328	2.01627419306897	6	object_onset	1	switch	0.458911756223351	44	13	31	n/a	NaN	NaN	NaN	NaN	NaN	NaN	NaN	NaN	NaN	NaN	NaN
672.155372672598	2.01615163346287	6	object_onset	1	stay	0	44	13	31	n/a	NaN	NaN	NaN	NaN	NaN	NaN	NaN	NaN	NaN	NaN	NaN
678.353840900934	2.01615963352378	4	object_onset	1	stay	0.458911756223351	14	2	12	n/a	NaN	NaN	NaN	NaN	NaN	NaN	NaN	NaN	NaN	NaN	NaN
684.135686649242	2.01615419355221	11	object_onset	2	switch	1.27914033631967	100	3	97	n/a	NaN	NaN	NaN	NaN	NaN	NaN	NaN	NaN	NaN	NaN	NaN
690.450751341879	2.01617851341143	2	object_onset	2	stay	0.853814968245462	16	5	11	n/a	NaN	NaN	NaN	NaN	NaN	NaN	NaN	NaN	NaN	NaN	NaN
698.265476995497	2.01603131380398	6	object_onset	2	stay	0.524785670536077	13	44	-31	n/a	NaN	NaN	NaN	NaN	NaN	NaN	NaN	NaN	NaN	NaN	NaN
705.430343080661	2.0161660334561	10	object_onset	2	stay	1.08747413762351	50	5	45	n/a	NaN	NaN	NaN	NaN	NaN	NaN	NaN	NaN	NaN	NaN	NaN
711.645457661129	2.81590133020654	10	choice	2	n/a	NaN	NaN	NaN	NaN	v	5	3	0.9	1.27914033631967	2.1316282072803e-14	47.6207587871056	6.10671340736224	65.9816111558298	714.452292777481	2.80683511635289	1
718.010502369842	2.01601851382293	8	object_onset	1	switch	0.569209978830308	44	16	28	n/a	NaN	NaN	NaN	NaN	NaN	NaN	NaN	NaN	NaN	NaN	NaN
724.158908022335	2.01616923348047	6	object_onset	2	switch	0.814984662432368	13	44	-31	n/a	NaN	NaN	NaN	NaN	NaN	NaN	NaN	NaN	NaN	NaN	NaN
730.840555019211	2.01620315341279	7	object_onset	2	stay	0.763675323681471	2	90	-88	n/a	NaN	NaN	NaN	NaN	NaN	NaN	NaN	NaN	NaN	NaN	NaN
736.622325887787	2.01630267302971	7	object_onset	1	switch	0	90	2	88	n/a	NaN	NaN	NaN	NaN	NaN	NaN	NaN	NaN	NaN	NaN	NaN
743.370770452195	2.01613403356168	11	object_onset	1	stay	1.26	3	100	-97	n/a	NaN	NaN	NaN	NaN	NaN	NaN	NaN	NaN	NaN	NaN	NaN
749.935756665072	2.01615771348588	2	object_onset	2	switch	0.853814968245462	16	5	11	n/a	NaN	NaN	NaN	NaN	NaN	NaN	NaN	NaN	NaN	NaN	NaN
755.917567597469	2.01615579344798	8	object_onset	2	stay	1.20747670784989	16	44	-28	n/a	NaN	NaN	NaN	NaN	NaN	NaN	NaN	NaN	NaN	NaN	NaN
760.916314161033	2.01615867344663	12	object_onset	1	switch	0.524785670536077	18	72	-54	n/a	NaN	NaN	NaN	NaN	NaN	NaN	NaN	NaN	NaN	NaN	NaN
767.847925878013	2.01613531354815	12	object_onset	1	stay	0	18	72	-54	n/a	NaN	NaN	NaN	NaN	NaN	NaN	NaN	NaN	NaN	NaN	NaN
772.730030537583	2.01615835342091	3	object_onset	1	stay	0.458911756223351	11	50	-39	n/a	NaN	NaN	NaN	NaN	NaN	NaN	NaN	NaN	NaN	NaN	NaN
780.228032303276	2.0162313132314	9	object_onset	1	stay	0.648999229583518	71	19	52	n/a	NaN	NaN	NaN	NaN	NaN	NaN	NaN	NaN	NaN	NaN	NaN
787.842845572624	2.01620315329637	10	object_onset	1	stay	0.763675323681471	5	50	-45	n/a	NaN	NaN	NaN	NaN	NaN	NaN	NaN	NaN	NaN	NaN	NaN
792.058459351654	3.59912179457024	10	choice	1	n/a	NaN	NaN	NaN	NaN	v	11	4	1.53792067415716	0.524785670536077	9.13254365480929	1.88362051778864	48.5598131691118	49.7671002275026	795.641710151918	3.58325080026407	-1
799.789842525264	2.01614907348994	4	object_onset	1	stay	1.53792067415716	14	2	12	n/a	NaN	NaN	NaN	NaN	NaN	NaN	NaN	NaN	NaN	NaN	NaN
807.03800181055	2.01616987353191	2	object_onset	2	switch	0.569209978830308	16	5	11	n/a	NaN	NaN	NaN	NaN	NaN	NaN	NaN	NaN	NaN	NaN	NaN
812.153383238241	2.0161500335671	5	object_onset	2	stay	0.853814968245462	3	71	-68	n/a	NaN	NaN	NaN	NaN	NaN	NaN	NaN	NaN	NaN	NaN	NaN
817.235448602005	2.0161820333451	12	object_onset	2	stay	0.9	72	18	54	n/a	NaN	NaN	NaN	NaN	NaN	NaN	NaN	NaN	NaN	NaN	NaN
822.684090189869	2.01616443344392	11	object_onset	1	switch	0.36	3	100	-97	n/a	NaN	NaN	NaN	NaN	NaN	NaN	NaN	NaN	NaN	NaN	NaN
828.299193698331	2.49951088149101	11	choice	1	n/a	NaN	NaN	NaN	NaN	d	10	1	0.569209978830308	0.524785670536077	2.25042862220399	1.88362051778864	55.5141933777059	49.7671002275026	830.781454389449	2.48226069111843	-1
834.014533398207	2.01616251340602	11	object_onset	1	stay	0	3	100	-97	n/a	NaN	NaN	NaN	NaN	NaN	NaN	NaN	NaN	NaN	NaN	NaN
839.413404153194	2.01593317033257	4	object_onset	2	switch	1.27914033631967	2	14	-12	n/a	NaN	NaN	NaN	NaN	NaN	NaN	NaN	NaN	NaN	NaN	NaN
844.678553565755	2.01603803387843	8	object_onset	2	stay	1.26	16	44	-28	n/a	NaN	NaN	NaN	NaN	NaN	NaN	NaN	NaN	NaN	NaN	NaN
850.71035059425	2.01616923336405	5	object_onset	2	stay	0.853814968245462	3	71	-68	n/a	NaN	NaN	NaN	NaN	NaN	NaN	NaN	NaN	NaN	NaN	NaN
855.575760261854	2.01616379339248	5	object_onset	2	stay	0	3	71	-68	n/a	NaN	NaN	NaN	NaN	NaN	NaN	NaN	NaN	NaN	NaN	NaN
859.907997705042	2.38277937751263	5	choice	2	n/a	NaN	NaN	NaN	NaN	d	9	4	0.524785670536077	0.524785670536077	0.93905438200614	16.3922524520963	56.8490675010205	1.4210854715202e-14	862.273286573007	2.36528886796441	1
865.406543789199	2.01624027325306	11	object_onset	2	stay	1.20747670784989	100	3	97	n/a	NaN	NaN	NaN	NaN	NaN	NaN	NaN	NaN	NaN	NaN	NaN
871.188386017457	4.03241142665502	11	choice	2	n/a	NaN	NaN	NaN	NaN	d	6	1	0.569209978830308	0.9	55.5141933777059	86.800615681217	2.25042862220399	40.5840886391862	875.214269462973	4.02588344551623	1
880.002923191641	2.0161660334561	3	object_onset	2	stay	0.524785670536077	50	11	39	n/a	NaN	NaN	NaN	NaN	NaN	NaN	NaN	NaN	NaN	NaN	NaN
885.318181803683	2.01624347316101	5	object_onset	2	stay	0.814984662432368	3	71	-68	n/a	NaN	NaN	NaN	NaN	NaN	NaN	NaN	NaN	NaN	NaN	NaN
893.132992897066	2.01615035347641	11	object_onset	1	switch	1.20747670784989	3	100	-97	n/a	NaN	NaN	NaN	NaN	NaN	NaN	NaN	NaN	NaN	NaN	NaN
900.747694166726	2.01610043353867	12	object_onset	1	stay	0.36	18	72	-54	n/a	NaN	NaN	NaN	NaN	NaN	NaN	NaN	NaN	NaN	NaN	NaN
907.862611915683	2.01614907348994	12	object_onset	2	switch	0	72	18	54	n/a	NaN	NaN	NaN	NaN	NaN	NaN	NaN	NaN	NaN	NaN	NaN
914.594245648594	2.01612475363072	6	object_onset	2	stay	0.648999229583518	13	44	-31	n/a	NaN	NaN	NaN	NaN	NaN	NaN	NaN	NaN	NaN	NaN	NaN
918.793144595809	4.26562835497316	6	choice	2	n/a	NaN	NaN	NaN	NaN	d	3	5	0.458911756223351	0.36	37.0335154537144	10.5872433333912	32.5937547140354	27.2811430344322	923.053866084898	4.26072148908861	-1
928.007528298302	2.01615259354003	6	object_onset	1	switch	0	44	13	31	n/a	NaN	NaN	NaN	NaN	NaN	NaN	NaN	NaN	NaN	NaN	NaN
933.239392270567	6.9150421647355	6	choice	1	n/a	NaN	NaN	NaN	NaN	d	8	11	0.9	0.814984662432368	40.5840886391862	7.105427357601e-15	86.800615681217	2.96273492775089	940.144173024804	6.90478075423744	-1
943.420272069634	2.01615227351431	8	object_onset	1	stay	0.814984662432368	44	16	28	n/a	NaN	NaN	NaN	NaN	NaN	NaN	NaN	NaN	NaN	NaN	NaN
949.835310234339	2.01619643333834	1	object_onset	1	stay	1.27914033631967	1	44	-43	n/a	NaN	NaN	NaN	NaN	NaN	NaN	NaN	NaN	NaN	NaN	NaN
955.76707651082	2.01623995322734	1	object_onset	1	stay	0	1	44	-43	n/a	NaN	NaN	NaN	NaN	NaN	NaN	NaN	NaN	NaN	NaN	NaN
961.565728610731	2.01615739346016	1	object_onset	2	switch	0	44	1	43	n/a	NaN	NaN	NaN	NaN	NaN	NaN	NaN	NaN	NaN	NaN	NaN
969.213810584275	2.01614491350483	2	object_onset	1	switch	0.524785670536077	5	16	-11	n/a	NaN	NaN	NaN	NaN	NaN	NaN	NaN	NaN	NaN	NaN	NaN
974.745738972328	2.01601659390144	4	object_onset	1	stay	0.569209978830308	14	2	12	n/a	NaN	NaN	NaN	NaN	NaN	NaN	NaN	NaN	NaN	NaN	NaN
980.477591584553	2.01614587346558	9	object_onset	2	switch	0.9	19	71	-52	n/a	NaN	NaN	NaN	NaN	NaN	NaN	NaN	NaN	NaN	NaN	NaN
987.692440245766	2.016189393471	5	object_onset	1	switch	0.524785670536077	71	3	68	n/a	NaN	NaN	NaN	NaN	NaN	NaN	NaN	NaN	NaN	NaN	NaN
995.240520587307	2.01617595343851	10	object_onset	1	stay	1.27914033631967	5	50	-45	n/a	NaN	NaN	NaN	NaN	NaN	NaN	NaN	NaN	NaN	NaN	NaN
1000.93909425545	2.01615387352649	12	object_onset	2	switch	0.458911756223351	72	18	54	n/a	NaN	NaN	NaN	NaN	NaN	NaN	NaN	NaN	NaN	NaN	NaN
1006.0711284352	2.01616123341955	7	object_onset	1	switch	0.9	90	2	88	n/a	NaN	NaN	NaN	NaN	NaN	NaN	NaN	NaN	NaN	NaN	NaN
1013.41931303241	2.01615259354003	11	object_onset	2	switch	1.26	100	3	97	n/a	NaN	NaN	NaN	NaN	NaN	NaN	NaN	NaN	NaN	NaN	NaN
1018.81792020448	2.01619259326253	11	object_onset	2	stay	0	100	3	97	n/a	NaN	NaN	NaN	NaN	NaN	NaN	NaN	NaN	NaN	NaN	NaN
1024.76636995294	2.01620603329502	8	object_onset	1	switch	0.853814968245462	44	16	28	n/a	NaN	NaN	NaN	NaN	NaN	NaN	NaN	NaN	NaN	NaN	NaN
1029.19862854795	2.69931734597776	8	choice	1	n/a	NaN	NaN	NaN	NaN	d	4	12	0.524785670536077	1.26	25.7097832561599	29.5679244665883	56.1629049914503	14.4890326431482	1031.88833600166	2.68970745371189	1
1035.79698874475	2.01617467333563	2	object_onset	2	switch	1.20747670784989	16	5	11	n/a	NaN	NaN	NaN	NaN	NaN	NaN	NaN	NaN	NaN	NaN	NaN
1040.14575606026	2.06628556910437	2	choice	2	n/a	NaN	NaN	NaN	NaN	v	11	6	0.524785670536077	0.853814968245462	2.96273492775089	83.8378807534661	38.7004681213976	1.88362051778864	1042.1987719076	2.05301584734116	1
1046.4776418244	2.01614939351566	4	object_onset	2	stay	0.569209978830308	2	14	-12	n/a	NaN	NaN	NaN	NaN	NaN	NaN	NaN	NaN	NaN	NaN	NaN
1052.19286728452	2.01615675352514	4	object_onset	1	switch	0	14	2	12	n/a	NaN	NaN	NaN	NaN	NaN	NaN	NaN	NaN	NaN	NaN	NaN
1058.50792973721	2.0161817134358	3	object_onset	1	stay	0.763675323681471	11	50	-39	n/a	NaN	NaN	NaN	NaN	NaN	NaN	NaN	NaN	NaN	NaN	NaN
