onset	duration	object	trial_type	map	stayswitch	distance	value	counterfactual_value	value_diff	choicetype	object1	object2	chosen_distance	unchosen_distance	chosen_value	unchosen_value	counterfactual_chosen_value	counterfactual_unchosen_value	button	response_time	cr
8.76797420543153	2.00634398788679	6	object_onset	1	n/a	NaN	NaN	NaN	NaN	n/a	NaN	NaN	NaN	NaN	NaN	NaN	NaN	NaN	NaN	NaN	NaN
14.7602571002208	4.23170003516134	6	choice	1	n/a	NaN	NaN	NaN	NaN	d	9	12	0.458911756223351	0.648999229583518	27.2811430344321	25.70978325616	5.80500911870512	59.1256399192012	18.981792674982	4.22153557476122	1
22.402813306544	2.00557310937438	4	object_onset	2	switch	0.458911756223351	2	14	-12	n/a	NaN	NaN	NaN	NaN	NaN	NaN	NaN	NaN	NaN	NaN	NaN
28.6428957255557	2.00555262935814	11	object_onset	2	stay	1.27914033631967	100	3	97	n/a	NaN	NaN	NaN	NaN	NaN	NaN	NaN	NaN	NaN	NaN	NaN
35.1513037094846	2.00580926879775	12	object_onset	2	stay	0.36	72	18	54	n/a	NaN	NaN	NaN	NaN	NaN	NaN	NaN	NaN	NaN	NaN	NaN
39.2394529802259	4.80827076814603	12	choice	2	n/a	NaN	NaN	NaN	NaN	d	4	8	0.524785670536077	1.08747413762351	56.1629049914503	70.6519376345985	25.7097832561599	3.85814121042835	44.0401100029703	4.80065702274442	1
47.693516428466	2.00773342512548	4	object_onset	2	stay	1.08747413762351	2	14	-12	n/a	NaN	NaN	NaN	NaN	NaN	NaN	NaN	NaN	NaN	NaN	NaN
53.226770764566	8.77291403606068	4	choice	2	n/a	NaN	NaN	NaN	NaN	d	10	1	1.08747413762351	1.53792067415716	42.8127200189084	48.5598131691118	13.2665927948019	9.13254365480929	61.9920684952522	8.76529773068614	1
66.7968144700862	2.00518143002409	4	object_onset	1	switch	0	14	2	12	n/a	NaN	NaN	NaN	NaN	NaN	NaN	NaN	NaN	NaN	NaN	NaN
74.3030736580258	2.00510943029076	10	object_onset	1	stay	1.53792067415716	5	50	-45	n/a	NaN	NaN	NaN	NaN	NaN	NaN	NaN	NaN	NaN	NaN	NaN
79.9448372258339	2.00513023021631	8	object_onset	1	stay	0.569209978830308	44	16	28	n/a	NaN	NaN	NaN	NaN	NaN	NaN	NaN	NaN	NaN	NaN	NaN
86.3854888598435	2.00507743027993	11	object_onset	1	stay	0.853814968245462	3	100	-97	n/a	NaN	NaN	NaN	NaN	NaN	NaN	NaN	NaN	NaN	NaN	NaN
90.4202465531416	11.4320225304691	11	choice	1	n/a	NaN	NaN	NaN	NaN	d	2	6	0.853814968245462	0.9	1.88362051778864	40.5840886391862	83.8378807534661	86.800615681217	101.844625898288	11.424379345146	1
106.047425188939	2.00511775014456	10	object_onset	1	stay	0.524785670536077	5	50	-45	n/a	NaN	NaN	NaN	NaN	NaN	NaN	NaN	NaN	NaN	NaN	NaN
110.933936126763	2.005102390307	7	object_onset	2	switch	1.08747413762351	2	90	-88	n/a	NaN	NaN	NaN	NaN	NaN	NaN	NaN	NaN	NaN	NaN	NaN
117.043106797151	2.00520191004034	6	object_onset	2	stay	0.763675323681471	13	44	-31	n/a	NaN	NaN	NaN	NaN	NaN	NaN	NaN	NaN	NaN	NaN	NaN
123.045804072055	2.00509919016622	7	object_onset	1	switch	0.763675323681471	90	2	88	n/a	NaN	NaN	NaN	NaN	NaN	NaN	NaN	NaN	NaN	NaN	NaN
128.894256522995	2.00510879023932	5	object_onset	2	switch	0.569209978830308	3	71	-68	n/a	NaN	NaN	NaN	NaN	NaN	NaN	NaN	NaN	NaN	NaN	NaN
136.338411190198	2.00522238994017	1	object_onset	1	switch	1.26	1	44	-43	n/a	NaN	NaN	NaN	NaN	NaN	NaN	NaN	NaN	NaN	NaN	NaN
142.999347521225	2.00509759027045	8	object_onset	2	switch	1.27914033631967	16	44	-28	n/a	NaN	NaN	NaN	NaN	NaN	NaN	NaN	NaN	NaN	NaN	NaN
148.549133985653	2.00509919016622	6	object_onset	2	stay	0.814984662432368	13	44	-31	n/a	NaN	NaN	NaN	NaN	NaN	NaN	NaN	NaN	NaN	NaN	NaN
153.434989884845	2.00508959020954	11	object_onset	2	stay	0.9	100	3	97	n/a	NaN	NaN	NaN	NaN	NaN	NaN	NaN	NaN	NaN	NaN	NaN
160.434977084864	2.00511263008229	1	object_onset	2	stay	0.569209978830308	44	1	43	n/a	NaN	NaN	NaN	NaN	NaN	NaN	NaN	NaN	NaN	NaN	NaN
166.632887104875	2.00512479012832	9	object_onset	2	stay	1.08747413762351	19	71	-52	n/a	NaN	NaN	NaN	NaN	NaN	NaN	NaN	NaN	NaN	NaN	NaN
173.80714053032	2.00513695005793	6	object_onset	2	stay	0.458911756223351	13	44	-31	n/a	NaN	NaN	NaN	NaN	NaN	NaN	NaN	NaN	NaN	NaN	NaN
178.883939742809	2.00497407047078	10	object_onset	2	stay	1.08747413762351	50	5	45	n/a	NaN	NaN	NaN	NaN	NaN	NaN	NaN	NaN	NaN	NaN	NaN
183.82163714245	32.3430015813792	10	choice	2	n/a	NaN	NaN	NaN	NaN	d	3	5	0.9	1.27914033631967	2.1316282072803e-14	47.6207587871056	6.10671340736224	65.9816111558298	216.145978279645	32.324341137195	1
221.265770369675	2.00514303019736	6	object_onset	2	stay	1.08747413762351	13	44	-31	n/a	NaN	NaN	NaN	NaN	NaN	NaN	NaN	NaN	NaN	NaN	NaN
227.582123682252	46.5169065275695	6	choice	2	n/a	NaN	NaN	NaN	NaN	d	7	1	0.763675323681471	0.9	11.3101527179681	31.2864223035111	46.7766790247836	42.8345172613902	274.092435982544	46.5103123002918	1
279.734094270505	2.0051599900471	9	object_onset	1	switch	0.458911756223351	71	19	52	n/a	NaN	NaN	NaN	NaN	NaN	NaN	NaN	NaN	NaN	NaN	NaN
286.034224894247	2.00506943033542	5	object_onset	1	stay	0.524785670536077	71	3	68	n/a	NaN	NaN	NaN	NaN	NaN	NaN	NaN	NaN	NaN	NaN	NaN
292.155894100666	2.00503263028804	3	object_onset	1	stay	0.814984662432368	11	50	-39	n/a	NaN	NaN	NaN	NaN	NaN	NaN	NaN	NaN	NaN	NaN	NaN
298.348210531403	6.93901451712009	3	choice	1	n/a	NaN	NaN	NaN	NaN	d	7	4	0.763675323681471	1.08747413762351	3.02583024744705	79.370433738819	48.5598131691118	48.3436681716825	305.280459941481	6.93224941007793	1
308.397939715884	2.0052009500796	2	object_onset	1	stay	0.36	5	16	-11	n/a	NaN	NaN	NaN	NaN	NaN	NaN	NaN	NaN	NaN	NaN	NaN
315.387699415558	2.00508511031512	7	object_onset	1	stay	1.27914033631967	90	2	88	n/a	NaN	NaN	NaN	NaN	NaN	NaN	NaN	NaN	NaN	NaN	NaN
319.89182100771	21.6647027237341	7	choice	1	n/a	NaN	NaN	NaN	NaN	d	12	10	1.08747413762351	0.9	85.4771471461812	72.4864622809436	48.3436681716825	70.4357926371693	341.549562464817	21.6577414571075	-1
345.315804513637	2.00508735026233	9	object_onset	2	switch	0.458911756223351	19	71	-52	n/a	NaN	NaN	NaN	NaN	NaN	NaN	NaN	NaN	NaN	NaN	NaN
350.472276853165	2.0052207900444	12	object_onset	2	stay	0.458911756223351	72	18	54	n/a	NaN	NaN	NaN	NaN	NaN	NaN	NaN	NaN	NaN	NaN	NaN
357.707691761199	2.00513343012426	9	object_onset	1	switch	0.458911756223351	71	19	52	n/a	NaN	NaN	NaN	NaN	NaN	NaN	NaN	NaN	NaN	NaN	NaN
363.707621361362	2.00547198951244	7	object_onset	2	switch	0.458911756223351	2	90	-88	n/a	NaN	NaN	NaN	NaN	NaN	NaN	NaN	NaN	NaN	NaN	NaN
369.424763024435	18.8908171695657	7	choice	2	n/a	NaN	NaN	NaN	NaN	d	1	2	1.27914033631967	1.53792067415716	14.272887645719	42.5965750214792	85.4771471461812	89.6111962861739	388.291068561142	18.8663055367069	1
391.549006305868	2.00517855002545	11	object_onset	1	switch	1.26	3	100	-97	n/a	NaN	NaN	NaN	NaN	NaN	NaN	NaN	NaN	NaN	NaN	NaN
396.558149968274	2.00512447021902	1	object_onset	1	stay	0.569209978830308	1	44	-43	n/a	NaN	NaN	NaN	NaN	NaN	NaN	NaN	NaN	NaN	NaN	NaN
401.240533938166	4.97575012652669	1	choice	1	n/a	NaN	NaN	NaN	NaN	d	11	10	0.569209978830308	1.08747413762351	2.25042862220399	4.13404913999263	55.5141933777059	5.74709315020331	406.192287630751	4.95175369258504	1
410.267738685943	2.00505983026233	12	object_onset	1	stay	0.763675323681471	18	72	-54	n/a	NaN	NaN	NaN	NaN	NaN	NaN	NaN	NaN	NaN	NaN	NaN
417.371495286701	2.00510271021631	11	object_onset	2	switch	0.36	100	3	97	n/a	NaN	NaN	NaN	NaN	NaN	NaN	NaN	NaN	NaN	NaN	NaN
423.701588732889	2.0050828702515	10	object_onset	1	switch	0.524785670536077	5	50	-45	n/a	NaN	NaN	NaN	NaN	NaN	NaN	NaN	NaN	NaN	NaN	NaN
428.511735017411	2.00504895031918	11	object_onset	2	switch	0.524785670536077	100	3	97	n/a	NaN	NaN	NaN	NaN	NaN	NaN	NaN	NaN	NaN	NaN	NaN
435.290289682569	11.1056340371724	11	choice	2	n/a	NaN	NaN	NaN	NaN	d	5	2	0.853814968245462	1.20747670784989	83.8378807534661	97.3878590146082	1.88362051778864	67.8652316736184	446.390364370425	11.1000746878562	1
451.00588638871	2.00513471011072	3	object_onset	1	switch	0.524785670536077	11	50	-39	n/a	NaN	NaN	NaN	NaN	NaN	NaN	NaN	NaN	NaN	NaN	NaN
456.134314302122	2.00547486951109	5	object_onset	2	switch	0.814984662432368	3	71	-68	n/a	NaN	NaN	NaN	NaN	NaN	NaN	NaN	NaN	NaN	NaN	NaN
462.59832365124	3.9954985686345	5	choice	2	n/a	NaN	NaN	NaN	NaN	d	3	6	0.36	0.814984662432368	10.5872433333912	47.6207587871056	27.2811430344322	59.8748977484675	466.588523349958	3.99019969871733	1
471.146850598045	2.00583230878692	2	object_onset	2	stay	0.853814968245462	16	5	11	n/a	NaN	NaN	NaN	NaN	NaN	NaN	NaN	NaN	NaN	NaN	NaN
476.200539454934	10.4654253463959	2	choice	2	n/a	NaN	NaN	NaN	NaN	d	10	9	0.9	1.26	2.84227419095423	34.0707805259635	65.9816111558297	1.77635683940025e-15	486.660178572405	10.4596391174709	1
491.876519917045	2.00503391039092	8	object_onset	2	stay	1.20747670784989	16	44	-28	n/a	NaN	NaN	NaN	NaN	NaN	NaN	NaN	NaN	NaN	NaN	NaN
496.976308525424	2.00514943012968	10	object_onset	2	stay	0.569209978830308	50	5	45	n/a	NaN	NaN	NaN	NaN	NaN	NaN	NaN	NaN	NaN	NaN	NaN
501.94253899029	2.00507039029617	9	object_onset	1	switch	0.763675323681471	71	19	52	n/a	NaN	NaN	NaN	NaN	NaN	NaN	NaN	NaN	NaN	NaN	NaN
507.730793476803	2.00514623022173	4	object_onset	1	stay	0.9	14	2	12	n/a	NaN	NaN	NaN	NaN	NaN	NaN	NaN	NaN	NaN	NaN	NaN
513.886754137347	2.00515231012832	3	object_onset	2	switch	0.763675323681471	50	11	39	n/a	NaN	NaN	NaN	NaN	NaN	NaN	NaN	NaN	NaN	NaN	NaN
519.701205373625	2.00594686856493	1	object_onset	2	stay	0.458911756223351	44	1	43	n/a	NaN	NaN	NaN	NaN	NaN	NaN	NaN	NaN	NaN	NaN	NaN
526.365816897596	2.00514463009313	6	object_onset	2	stay	0.9	13	44	-31	n/a	NaN	NaN	NaN	NaN	NaN	NaN	NaN	NaN	NaN	NaN	NaN
531.869797689957	2.005074870307	11	object_onset	1	switch	0.9	3	100	-97	n/a	NaN	NaN	NaN	NaN	NaN	NaN	NaN	NaN	NaN	NaN	NaN
537.771896757884	2.00510111020412	4	object_onset	1	stay	1.27914033631967	14	2	12	n/a	NaN	NaN	NaN	NaN	NaN	NaN	NaN	NaN	NaN	NaN	NaN
545.53793528711	2.00515359011479	7	object_onset	1	stay	1.08747413762351	90	2	88	n/a	NaN	NaN	NaN	NaN	NaN	NaN	NaN	NaN	NaN	NaN	NaN
551.147801316227	2.00505663023796	6	object_onset	1	stay	0.763675323681471	44	13	31	n/a	NaN	NaN	NaN	NaN	NaN	NaN	NaN	NaN	NaN	NaN	NaN
558.773979953956	2.00509823020548	6	object_onset	1	stay	0	44	13	31	n/a	NaN	NaN	NaN	NaN	NaN	NaN	NaN	NaN	NaN	NaN	NaN
565.983720351243	2.00519167003222	9	object_onset	2	switch	0.458911756223351	19	71	-52	n/a	NaN	NaN	NaN	NaN	NaN	NaN	NaN	NaN	NaN	NaN	NaN
571.69115323294	2.0050751902163	10	object_onset	2	stay	0.763675323681471	50	5	45	n/a	NaN	NaN	NaN	NaN	NaN	NaN	NaN	NaN	NaN	NaN	NaN
579.197882179986	2.00474527094048	12	object_onset	1	switch	0.458911756223351	18	72	-54	n/a	NaN	NaN	NaN	NaN	NaN	NaN	NaN	NaN	NaN	NaN	NaN
583.998324163142	2.00480511086062	12	object_onset	1	stay	0	18	72	-54	n/a	NaN	NaN	NaN	NaN	NaN	NaN	NaN	NaN	NaN	NaN	NaN
588.995842567994	7.10362028097734	12	choice	1	n/a	NaN	NaN	NaN	NaN	d	8	5	0.524785670536077	0.9	25.7097832561599	52.9909262905921	56.1629049914503	69.7128832525924	596.094413258717	7.09857069072314	1
598.948693218525	2.00495423038956	12	object_onset	2	switch	0	72	18	54	n/a	NaN	NaN	NaN	NaN	NaN	NaN	NaN	NaN	NaN	NaN	NaN
605.20947831776	2.0049843104789	10	object_onset	1	switch	0.458911756223351	5	50	-45	n/a	NaN	NaN	NaN	NaN	NaN	NaN	NaN	NaN	NaN	NaN	NaN
612.094222539105	2.00535038963426	6	object_onset	1	stay	1.08747413762351	44	13	31	n/a	NaN	NaN	NaN	NaN	NaN	NaN	NaN	NaN	NaN	NaN	NaN
619.784491293714	2.00522430997808	7	object_onset	2	switch	0.763675323681471	2	90	-88	n/a	NaN	NaN	NaN	NaN	NaN	NaN	NaN	NaN	NaN	NaN	NaN
626.052125659888	2.00513471011072	3	object_onset	1	switch	1.08747413762351	11	50	-39	n/a	NaN	NaN	NaN	NaN	NaN	NaN	NaN	NaN	NaN	NaN	NaN
631.456482643494	2.00579166889656	12	object_onset	2	switch	0.458911756223351	72	18	54	n/a	NaN	NaN	NaN	NaN	NaN	NaN	NaN	NaN	NaN	NaN	NaN
638.899581312784	2.00521278998349	1	object_onset	2	stay	0.763675323681471	44	1	43	n/a	NaN	NaN	NaN	NaN	NaN	NaN	NaN	NaN	NaN	NaN	NaN
644.639882611344	2.00514303019736	9	object_onset	1	switch	1.08747413762351	71	19	52	n/a	NaN	NaN	NaN	NaN	NaN	NaN	NaN	NaN	NaN	NaN	NaN
649.261899977108	28.9376282797894	9	choice	1	n/a	NaN	NaN	NaN	NaN	d	6	3	0.458911756223351	0.648999229583518	27.2811430344321	59.8748977484675	5.80500911870512	31.2285063350093	678.193948427564	28.9320484504569	1
682.514653731836	2.00509951019194	12	object_onset	1	stay	0.458911756223351	18	72	-54	n/a	NaN	NaN	NaN	NaN	NaN	NaN	NaN	NaN	NaN	NaN	NaN
689.472844852135	2.00519583001733	11	object_onset	1	stay	0.36	3	100	-97	n/a	NaN	NaN	NaN	NaN	NaN	NaN	NaN	NaN	NaN	NaN	NaN
694.752415515366	2.00506975024473	11	object_onset	2	switch	0	100	3	97	n/a	NaN	NaN	NaN	NaN	NaN	NaN	NaN	NaN	NaN	NaN	NaN
700.393032205408	2.00515646999702	5	object_onset	2	stay	1.20747670784989	3	71	-68	n/a	NaN	NaN	NaN	NaN	NaN	NaN	NaN	NaN	NaN	NaN	NaN
706.218235420994	2.00507743016351	11	object_onset	1	switch	1.20747670784989	3	100	-97	n/a	NaN	NaN	NaN	NaN	NaN	NaN	NaN	NaN	NaN	NaN	NaN
712.847084453562	2.005183350062	1	object_onset	2	switch	0.569209978830308	44	1	43	n/a	NaN	NaN	NaN	NaN	NaN	NaN	NaN	NaN	NaN	NaN	NaN
717.510381100001	5.58004304638598	1	choice	2	n/a	NaN	NaN	NaN	NaN	d	5	3	0.458911756223351	1.26	5.74709315020333	41.8736656369023	10.2407625473549	70.1156602958224	723.085084636579	5.57470353657845	1
726.40566546109	2.00512543017976	8	object_onset	2	stay	1.27914033631967	16	44	-28	n/a	NaN	NaN	NaN	NaN	NaN	NaN	NaN	NaN	NaN	NaN	NaN
731.655636821175	2.0051084702136	4	object_onset	1	switch	1.26	14	2	12	n/a	NaN	NaN	NaN	NaN	NaN	NaN	NaN	NaN	NaN	NaN	NaN
736.706955442671	2.00508959020954	12	object_onset	1	stay	1.08747413762351	18	72	-54	n/a	NaN	NaN	NaN	NaN	NaN	NaN	NaN	NaN	NaN	NaN	NaN
744.407922736718	2.00510623026639	2	object_onset	1	stay	0.814984662432368	5	16	-11	n/a	NaN	NaN	NaN	NaN	NaN	NaN	NaN	NaN	NaN	NaN	NaN
749.864585859934	2.00511967018247	4	object_onset	2	switch	0.569209978830308	2	14	-12	n/a	NaN	NaN	NaN	NaN	NaN	NaN	NaN	NaN	NaN	NaN	NaN
755.320972823654	2.00507455028128	9	object_onset	1	switch	0.9	71	19	52	n/a	NaN	NaN	NaN	NaN	NaN	NaN	NaN	NaN	NaN	NaN	NaN
760.785261212266	2.00509215018246	7	object_onset	1	stay	0.458911756223351	90	2	88	n/a	NaN	NaN	NaN	NaN	NaN	NaN	NaN	NaN	NaN	NaN	NaN
766.12019624922	2.00509119022172	1	object_onset	1	stay	1.53792067415716	1	44	-43	n/a	NaN	NaN	NaN	NaN	NaN	NaN	NaN	NaN	NaN	NaN	NaN
770.955312085804	2.00519615004305	9	object_onset	1	stay	1.08747413762351	71	19	52	n/a	NaN	NaN	NaN	NaN	NaN	NaN	NaN	NaN	NaN	NaN	NaN
775.9330001286	2.00511743023526	3	object_onset	2	switch	0.648999229583518	50	11	39	n/a	NaN	NaN	NaN	NaN	NaN	NaN	NaN	NaN	NaN	NaN	NaN
782.652683866792	2.00509663019329	6	object_onset	2	stay	0.458911756223351	13	44	-31	n/a	NaN	NaN	NaN	NaN	NaN	NaN	NaN	NaN	NaN	NaN	NaN
788.689784275601	2.00517791009042	8	object_onset	2	stay	0.814984662432368	16	44	-28	n/a	NaN	NaN	NaN	NaN	NaN	NaN	NaN	NaN	NaN	NaN	NaN
795.536780089373	2.00510303024203	9	object_onset	2	stay	0.36	19	71	-52	n/a	NaN	NaN	NaN	NaN	NaN	NaN	NaN	NaN	NaN	NaN	NaN
800.421049431548	2.00507647031918	3	object_onset	2	stay	0.648999229583518	50	11	39	n/a	NaN	NaN	NaN	NaN	NaN	NaN	NaN	NaN	NaN	NaN	NaN
805.722134613432	2.00519007002003	12	object_onset	2	stay	0.458911756223351	72	18	54	n/a	NaN	NaN	NaN	NaN	NaN	NaN	NaN	NaN	NaN	NaN	NaN
812.205432565534	2.00510175025556	2	object_onset	1	switch	0.814984662432368	5	16	-11	n/a	NaN	NaN	NaN	NaN	NaN	NaN	NaN	NaN	NaN	NaN	NaN
817.60377868067	2.00524030998349	10	object_onset	1	stay	1.26	5	50	-45	n/a	NaN	NaN	NaN	NaN	NaN	NaN	NaN	NaN	NaN	NaN	NaN
824.151309789508	7.01372669357806	10	choice	1	n/a	NaN	NaN	NaN	NaN	d	2	9	0.763675323681471	1.26	65.9816111558297	1.77635683940025e-15	31.2285063350093	34.0707805259635	831.159758733236	7.00844894372858	1
834.372737204307	2.00516639009584	3	object_onset	1	stay	0.9	11	50	-39	n/a	NaN	NaN	NaN	NaN	NaN	NaN	NaN	NaN	NaN	NaN	NaN
839.923141587526	2.00512895011343	5	object_onset	1	stay	0.814984662432368	71	3	68	n/a	NaN	NaN	NaN	NaN	NaN	NaN	NaN	NaN	NaN	NaN	NaN
845.656784658902	5.43446636584122	5	choice	1	n/a	NaN	NaN	NaN	NaN	d	6	12	0.36	0.9	27.2811430344322	52.9909262905921	10.5872433333912	69.7128832525924	851.085998234805	5.42921357590239	1
854.537552887923	2.00511551008094	9	object_onset	2	switch	0.524785670536077	19	71	-52	n/a	NaN	NaN	NaN	NaN	NaN	NaN	NaN	NaN	NaN	NaN	NaN
861.707229362102	2.00509471015539	9	object_onset	2	stay	0	19	71	-52	n/a	NaN	NaN	NaN	NaN	NaN	NaN	NaN	NaN	NaN	NaN	NaN
866.437624119688	4.81229124043602	9	choice	2	n/a	NaN	NaN	NaN	NaN	d	12	4	0.458911756223351	0.9	53.3206308004961	17.3313068341025	52.9909262905921	56.8490675010204	871.244632810238	4.80700869054999	1
874.69407706731	2.00513823016081	11	object_onset	2	stay	0.814984662432368	100	3	97	n/a	NaN	NaN	NaN	NaN	NaN	NaN	NaN	NaN	NaN	NaN	NaN
879.598189571407	2.00509823020548	8	object_onset	2	stay	0.853814968245462	16	44	-28	n/a	NaN	NaN	NaN	NaN	NaN	NaN	NaN	NaN	NaN	NaN	NaN
885.762021896895	2.00511327013373	12	object_onset	1	switch	0.524785670536077	18	72	-54	n/a	NaN	NaN	NaN	NaN	NaN	NaN	NaN	NaN	NaN	NaN	NaN
892.076970412163	2.00510559021495	2	object_onset	2	switch	0.814984662432368	16	5	11	n/a	NaN	NaN	NaN	NaN	NaN	NaN	NaN	NaN	NaN	NaN	NaN
898.63758885581	2.00516991002951	2	object_onset	2	stay	0	16	5	11	n/a	NaN	NaN	NaN	NaN	NaN	NaN	NaN	NaN	NaN	NaN	NaN
903.828803208657	2.00510175025556	7	object_onset	2	stay	1.27914033631967	2	90	-88	n/a	NaN	NaN	NaN	NaN	NaN	NaN	NaN	NaN	NaN	NaN	NaN
909.911195690511	2.0050889501581	10	object_onset	2	stay	1.08747413762351	50	5	45	n/a	NaN	NaN	NaN	NaN	NaN	NaN	NaN	NaN	NaN	NaN	NaN
915.853054682142	2.0050831901608	10	object_onset	1	switch	0	5	50	-45	n/a	NaN	NaN	NaN	NaN	NaN	NaN	NaN	NaN	NaN	NaN	NaN
920.867997053429	2.00508511019871	4	object_onset	2	switch	1.53792067415716	2	14	-12	n/a	NaN	NaN	NaN	NaN	NaN	NaN	NaN	NaN	NaN	NaN	NaN
926.963187270681	2.00513887009583	2	object_onset	1	switch	0.569209978830308	5	16	-11	n/a	NaN	NaN	NaN	NaN	NaN	NaN	NaN	NaN	NaN	NaN	NaN
934.213495590026	2.00576350896154	3	object_onset	2	switch	0.36	50	11	39	n/a	NaN	NaN	NaN	NaN	NaN	NaN	NaN	NaN	NaN	NaN	NaN
941.982686753268	2.0051577500999	7	object_onset	1	switch	1.08747413762351	90	2	88	n/a	NaN	NaN	NaN	NaN	NaN	NaN	NaN	NaN	NaN	NaN	NaN
946.811357162194	2.00512959016487	4	object_onset	1	stay	1.08747413762351	14	2	12	n/a	NaN	NaN	NaN	NaN	NaN	NaN	NaN	NaN	NaN	NaN	NaN
954.022907475941	2.00512031023391	2	object_onset	1	stay	0.569209978830308	5	16	-11	n/a	NaN	NaN	NaN	NaN	NaN	NaN	NaN	NaN	NaN	NaN	NaN
959.32939392759	2.0051087901229	12	object_onset	2	switch	0.814984662432368	72	18	54	n/a	NaN	NaN	NaN	NaN	NaN	NaN	NaN	NaN	NaN	NaN	NaN
964.331636803225	2.00512543017976	6	object_onset	1	switch	0.648999229583518	44	13	31	n/a	NaN	NaN	NaN	NaN	NaN	NaN	NaN	NaN	NaN	NaN	NaN
971.416332320659	2.00508511019871	5	object_onset	2	switch	0.36	3	71	-68	n/a	NaN	NaN	NaN	NaN	NaN	NaN	NaN	NaN	NaN	NaN	NaN
976.54562487232	2.00516063009854	3	object_onset	1	switch	0.814984662432368	11	50	-39	n/a	NaN	NaN	NaN	NaN	NaN	NaN	NaN	NaN	NaN	NaN	NaN
983.920617432334	2.00510687020142	1	object_onset	1	stay	0.458911756223351	1	44	-43	n/a	NaN	NaN	NaN	NaN	NaN	NaN	NaN	NaN	NaN	NaN	NaN
989.897436036845	2.00485055078752	7	object_onset	2	switch	1.53792067415716	2	90	-88	n/a	NaN	NaN	NaN	NaN	NaN	NaN	NaN	NaN	NaN	NaN	NaN
995.362011464895	2.00516191008501	8	object_onset	1	switch	0.524785670536077	44	16	28	n/a	NaN	NaN	NaN	NaN	NaN	NaN	NaN	NaN	NaN	NaN	NaN
1000.60545643745	2.00516607007012	1	object_onset	2	switch	1.27914033631967	44	1	43	n/a	NaN	NaN	NaN	NaN	NaN	NaN	NaN	NaN	NaN	NaN	NaN
1006.31130276225	2.00522207003087	3	object_onset	2	stay	0.458911756223351	50	11	39	n/a	NaN	NaN	NaN	NaN	NaN	NaN	NaN	NaN	NaN	NaN	NaN
1013.47141189489	2.00523358990904	1	object_onset	1	switch	0.458911756223351	1	44	-43	n/a	NaN	NaN	NaN	NaN	NaN	NaN	NaN	NaN	NaN	NaN	NaN
1018.84953020886	2.00515839015134	8	object_onset	1	stay	1.27914033631967	44	16	28	n/a	NaN	NaN	NaN	NaN	NaN	NaN	NaN	NaN	NaN	NaN	NaN
1024.66686047963	2.00506495020818	2	object_onset	1	stay	1.20747670784989	5	16	-11	n/a	NaN	NaN	NaN	NaN	NaN	NaN	NaN	NaN	NaN	NaN	NaN
1028.7530324742	11.8266928127268	2	choice	1	n/a	NaN	NaN	NaN	NaN	d	8	7	1.27914033631967	1.20747670784989	85.4771471461812	38.7004681213976	14.272887645719	0	1040.57425585738	11.8212233831873	-1
1043.71195319307	2.00523038988467	1	object_onset	1	stay	0.524785670536077	1	44	-43	n/a	NaN	NaN	NaN	NaN	NaN	NaN	NaN	NaN	NaN	NaN	NaN
1048.72864212096	2.00508831022307	5	object_onset	1	stay	1.26	71	3	68	n/a	NaN	NaN	NaN	NaN	NaN	NaN	NaN	NaN	NaN	NaN	NaN
1055.95393608836	2.00510911026504	5	object_onset	1	stay	0	71	3	68	n/a	NaN	NaN	NaN	NaN	NaN	NaN	NaN	NaN	NaN	NaN	NaN
1062.97672260471	2.00505503022578	4	object_onset	2	switch	0.524785670536077	2	14	-12	n/a	NaN	NaN	NaN	NaN	NaN	NaN	NaN	NaN	NaN	NaN	NaN
1069.30967236543	2.00511775014456	3	object_onset	1	switch	0.763675323681471	11	50	-39	n/a	NaN	NaN	NaN	NaN	NaN	NaN	NaN	NaN	NaN	NaN	NaN
1075.27347627492	2.00496767042205	2	object_onset	2	switch	0.36	16	5	11	n/a	NaN	NaN	NaN	NaN	NaN	NaN	NaN	NaN	NaN	NaN	NaN
1081.78746856807	2.00511807017028	5	object_onset	1	switch	0.853814968245462	71	3	68	n/a	NaN	NaN	NaN	NaN	NaN	NaN	NaN	NaN	NaN	NaN	NaN
1088.35453211924	2.00506303028669	2	object_onset	2	switch	0.853814968245462	16	5	11	n/a	NaN	NaN	NaN	NaN	NaN	NaN	NaN	NaN	NaN	NaN	NaN
1095.07842128945	2.00516031007282	11	object_onset	1	switch	0.853814968245462	3	100	-97	n/a	NaN	NaN	NaN	NaN	NaN	NaN	NaN	NaN	NaN	NaN	NaN
1101.35140124534	2.00499519030564	5	object_onset	2	switch	1.20747670784989	3	71	-68	n/a	NaN	NaN	NaN	NaN	NaN	NaN	NaN	NaN	NaN	NaN	NaN
1107.16565536195	2.00509343016893	6	object_onset	1	switch	0.36	44	13	31	n/a	NaN	NaN	NaN	NaN	NaN	NaN	NaN	NaN	NaN	NaN	NaN
1112.05825428816	2.00518431002274	2	object_onset	2	switch	0.524785670536077	16	5	11	n/a	NaN	NaN	NaN	NaN	NaN	NaN	NaN	NaN	NaN	NaN	NaN
1118.62415816158	2.00513855018653	3	object_onset	2	stay	0.36	50	11	39	n/a	NaN	NaN	NaN	NaN	NaN	NaN	NaN	NaN	NaN	NaN	NaN
1124.16282976733	14.9719875737792	3	choice	2	n/a	NaN	NaN	NaN	NaN	d	9	11	0.524785670536077	0.648999229583518	49.7671002275025	31.2285063350093	7.99033392515088	59.8748977484675	1139.12893895246	14.9661091851303	1
1142.41559376207	2.00511103018653	8	object_onset	1	switch	0.9	44	16	28	n/a	NaN	NaN	NaN	NaN	NaN	NaN	NaN	NaN	NaN	NaN	NaN
1149.52653722907	2.00514303008094	8	object_onset	1	stay	0	44	16	28	n/a	NaN	NaN	NaN	NaN	NaN	NaN	NaN	NaN	NaN	NaN	NaN
1154.95743240172	2.00511999020819	5	object_onset	1	stay	0.853814968245462	71	3	68	n/a	NaN	NaN	NaN	NaN	NaN	NaN	NaN	NaN	NaN	NaN	NaN
1160.30098342209	2.0052406298928	7	object_onset	1	stay	0.569209978830308	90	2	88	n/a	NaN	NaN	NaN	NaN	NaN	NaN	NaN	NaN	NaN	NaN	NaN
1166.09845709091	2.00512127019465	8	object_onset	1	stay	0.524785670536077	44	16	28	n/a	NaN	NaN	NaN	NaN	NaN	NaN	NaN	NaN	NaN	NaN	NaN
1172.4519152923	7.1334112638142	8	choice	1	n/a	NaN	NaN	NaN	NaN	d	1	11	0.853814968245462	1.27914033631967	40.5840886391862	42.8345172613902	83.8378807534661	28.3236873757602	1179.58009008621	7.12817479390651	1
1183.36768025404	2.00549630948808	4	object_onset	2	switch	1.26	2	14	-12	n/a	NaN	NaN	NaN	NaN	NaN	NaN	NaN	NaN	NaN	NaN	NaN
1188.3780837541	2.00508479017299	10	object_onset	2	stay	1.53792067415716	50	5	45	n/a	NaN	NaN	NaN	NaN	NaN	NaN	NaN	NaN	NaN	NaN	NaN
1196.17307998764	2.00511999020819	8	object_onset	2	stay	0.569209978830308	16	44	-28	n/a	NaN	NaN	NaN	NaN	NaN	NaN	NaN	NaN	NaN	NaN	NaN
1201.59233518271	4.85185084445402	8	choice	2	n/a	NaN	NaN	NaN	NaN	d	4	7	0.524785670536077	1.26	14.272887645719	14.4890326431482	46.7766790247836	29.5679244665883	1206.43889963732	4.8465644546086	1
1211.18159997126	2.00476511090528	7	object_onset	2	stay	0.524785670536077	2	90	-88	n/a	NaN	NaN	NaN	NaN	NaN	NaN	NaN	NaN	NaN	NaN	NaN
1216.54974998441	2.00509823020548	4	object_onset	1	switch	1.08747413762351	14	2	12	n/a	NaN	NaN	NaN	NaN	NaN	NaN	NaN	NaN	NaN	NaN	NaN
1222.66087777109	38.2352910682093	4	choice	1	n/a	NaN	NaN	NaN	NaN	d	11	8	1.27914033631967	1.26	11.0161641725979	29.5679244665883	98.3269133966143	14.4890326431482	1260.89049173018	38.2296139590908	-1
1265.20993527689	2.0050591903273	10	object_onset	2	switch	1.53792067415716	50	5	45	n/a	NaN	NaN	NaN	NaN	NaN	NaN	NaN	NaN	NaN	NaN	NaN
1271.65388706455	2.00510335015133	5	object_onset	2	stay	1.27914033631967	3	71	-68	n/a	NaN	NaN	NaN	NaN	NaN	NaN	NaN	NaN	NaN	NaN	NaN
1278.20052217494	2.00510623026639	1	object_onset	2	stay	1.26	44	1	43	n/a	NaN	NaN	NaN	NaN	NaN	NaN	NaN	NaN	NaN	NaN	NaN
