onset	duration	object	trial_type	map	stayswitch	distance	value	counterfactual_value	value_diff	choicetype	object1	object2	chosen_distance	unchosen_distance	chosen_value	unchosen_value	counterfactual_chosen_value	counterfactual_unchosen_value	button	response_time	cr
8.79851450026035	2.01614683351363	11	object_onset	1	n/a	NaN	NaN	NaN	NaN	n/a	NaN	NaN	NaN	NaN	NaN	NaN	NaN	NaN	NaN	NaN	NaN
13.7805548720062	2.01608155368012	3	object_onset	2	switch	0.524785670536077	50	11	39	n/a	NaN	NaN	NaN	NaN	NaN	NaN	NaN	NaN	NaN	NaN	NaN
19.9456721564638	2.01618811336812	5	object_onset	1	switch	0.814984662432368	71	3	68	n/a	NaN	NaN	NaN	NaN	NaN	NaN	NaN	NaN	NaN	NaN	NaN
25.1443656642223	5.81517493230058	5	choice	1	n/a	NaN	NaN	NaN	NaN	d	3	6	0.36	0.814984662432368	27.2811430344322	59.8748977484675	10.5872433333912	47.6207587871056	30.9382760177541	5.79391035353183	1
36.6081243286026	2.01608347365982	12	object_onset	1	stay	0.9	18	72	-54	n/a	NaN	NaN	NaN	NaN	NaN	NaN	NaN	NaN	NaN	NaN	NaN
41.3235971480317	4.99878240350517	12	choice	1	n/a	NaN	NaN	NaN	NaN	d	1	4	0.763675323681471	1.08747413762351	17.1247340052303	3.85814121042835	27.8392176156901	70.6519376345985	46.3021511297848	4.97855398175307	1
50.0047571063042	2.01618203337421	6	object_onset	2	switch	0.648999229583518	13	44	-31	n/a	NaN	NaN	NaN	NaN	NaN	NaN	NaN	NaN	NaN	NaN	NaN
56.7196136075072	2.01628955308115	7	object_onset	1	switch	0.763675323681471	90	2	88	n/a	NaN	NaN	NaN	NaN	NaN	NaN	NaN	NaN	NaN	NaN	NaN
62.3183120432659	2.01614715348114	8	object_onset	1	stay	0.524785670536077	44	16	28	n/a	NaN	NaN	NaN	NaN	NaN	NaN	NaN	NaN	NaN	NaN	NaN
68.9332993920834	2.01615259348182	10	object_onset	2	switch	0.569209978830308	50	5	45	n/a	NaN	NaN	NaN	NaN	NaN	NaN	NaN	NaN	NaN	NaN	NaN
76.2813707096502	2.01623931323411	5	object_onset	2	stay	1.27914033631967	3	71	-68	n/a	NaN	NaN	NaN	NaN	NaN	NaN	NaN	NaN	NaN	NaN	NaN
81.3635339930188	2.01615771345678	8	object_onset	1	switch	0.853814968245462	44	16	28	n/a	NaN	NaN	NaN	NaN	NaN	NaN	NaN	NaN	NaN	NaN	NaN
87.0121052451141	2.01612891355762	8	object_onset	2	switch	0	16	44	-28	n/a	NaN	NaN	NaN	NaN	NaN	NaN	NaN	NaN	NaN	NaN	NaN
92.1773639691819	4.13236057880567	8	choice	2	n/a	NaN	NaN	NaN	NaN	d	2	3	0.9	1.20747670784989	34.0707805259635	0	32.5937547140353	38.7004681213976	96.3023264892981	4.12496252011624	1
99.3589935260825	2.01615675346693	4	object_onset	1	switch	1.26	14	2	12	n/a	NaN	NaN	NaN	NaN	NaN	NaN	NaN	NaN	NaN	NaN	NaN
104.074463145545	6.43170883666608	4	choice	1	n/a	NaN	NaN	NaN	NaN	d	9	12	0.9	1.08747413762351	56.8490675010204	3.85814121042835	17.3313068341025	70.6519376345985	110.50047119864	6.42600805309485	1
115.888120002201	2.01616507343715	5	object_onset	2	switch	0.524785670536077	3	71	-68	n/a	NaN	NaN	NaN	NaN	NaN	NaN	NaN	NaN	NaN	NaN	NaN
121.336748470145	2.01619419336203	1	object_onset	2	stay	1.26	44	1	43	n/a	NaN	NaN	NaN	NaN	NaN	NaN	NaN	NaN	NaN	NaN	NaN
126.785432617937	10.5806335277739	1	choice	2	n/a	NaN	NaN	NaN	NaN	d	12	2	0.524785670536077	0.763675323681471	28.3236873757602	27.8392176156901	4.13404913999263	17.1247340052303	137.359182325541	10.5737497076043	1
141.948203029169	2.01620187333901	8	object_onset	2	stay	1.27914033631967	16	44	-28	n/a	NaN	NaN	NaN	NaN	NaN	NaN	NaN	NaN	NaN	NaN	NaN
147.063617096777	2.01615483345813	8	object_onset	1	switch	0	44	16	28	n/a	NaN	NaN	NaN	NaN	NaN	NaN	NaN	NaN	NaN	NaN	NaN
153.561999021447	2.01599291391904	6	object_onset	1	stay	0.814984662432368	44	13	31	n/a	NaN	NaN	NaN	NaN	NaN	NaN	NaN	NaN	NaN	NaN	NaN
161.060062547011	2.01615131349536	8	object_onset	2	switch	0.814984662432368	16	44	-28	n/a	NaN	NaN	NaN	NaN	NaN	NaN	NaN	NaN	NaN	NaN	NaN
167.59167029598	2.01623707322869	4	object_onset	2	stay	1.26	2	14	-12	n/a	NaN	NaN	NaN	NaN	NaN	NaN	NaN	NaN	NaN	NaN	NaN
174.773297292908	2.01612763354206	10	object_onset	2	stay	1.53792067415716	50	5	45	n/a	NaN	NaN	NaN	NaN	NaN	NaN	NaN	NaN	NaN	NaN	NaN
180.838399185392	2.01619387336541	1	object_onset	1	switch	1.08747413762351	1	44	-43	n/a	NaN	NaN	NaN	NaN	NaN	NaN	NaN	NaN	NaN	NaN	NaN
186.037097813154	2.01624731320771	6	object_onset	1	stay	0.9	44	13	31	n/a	NaN	NaN	NaN	NaN	NaN	NaN	NaN	NaN	NaN	NaN	NaN
192.868662138237	2.01619835334714	3	object_onset	2	switch	0.458911756223351	50	11	39	n/a	NaN	NaN	NaN	NaN	NaN	NaN	NaN	NaN	NaN	NaN	NaN
197.734171005577	2.01615451346152	4	object_onset	1	switch	0.763675323681471	14	2	12	n/a	NaN	NaN	NaN	NaN	NaN	NaN	NaN	NaN	NaN	NaN	NaN
203.182805233519	2.01600219390821	12	object_onset	2	switch	1.08747413762351	72	18	54	n/a	NaN	NaN	NaN	NaN	NaN	NaN	NaN	NaN	NaN	NaN	NaN
207.415034644684	6.06512909242883	12	choice	2	n/a	NaN	NaN	NaN	NaN	d	6	7	0.648999229583518	0.9	59.1256399192012	70.4357926371693	25.70978325616	72.4864622809436	213.475547430426	6.06051278574159	1
218.96211850908	2.01608283369569	5	object_onset	1	switch	0.9	71	3	68	n/a	NaN	NaN	NaN	NaN	NaN	NaN	NaN	NaN	NaN	NaN	NaN
224.494053297123	2.01615451346152	3	object_onset	1	stay	0.814984662432368	11	50	-39	n/a	NaN	NaN	NaN	NaN	NaN	NaN	NaN	NaN	NaN	NaN	NaN
231.042312838137	2.01628027309198	4	object_onset	2	switch	0.763675323681471	2	14	-12	n/a	NaN	NaN	NaN	NaN	NaN	NaN	NaN	NaN	NaN	NaN	NaN
237.724087194627	2.01615291347844	2	object_onset	1	switch	0.569209978830308	5	16	-11	n/a	NaN	NaN	NaN	NaN	NaN	NaN	NaN	NaN	NaN	NaN	NaN
244.822179392126	2.01623387323343	9	object_onset	2	switch	0.9	19	71	-52	n/a	NaN	NaN	NaN	NaN	NaN	NaN	NaN	NaN	NaN	NaN	NaN
250.620822532015	2.01605499375728	1	object_onset	1	switch	1.08747413762351	1	44	-43	n/a	NaN	NaN	NaN	NaN	NaN	NaN	NaN	NaN	NaN	NaN	NaN
257.002526392724	2.01617691339925	10	object_onset	2	switch	1.08747413762351	50	5	45	n/a	NaN	NaN	NaN	NaN	NaN	NaN	NaN	NaN	NaN	NaN	NaN
263.284299661202	2.01614331352175	6	object_onset	2	stay	1.08747413762351	13	44	-31	n/a	NaN	NaN	NaN	NaN	NaN	NaN	NaN	NaN	NaN	NaN	NaN
267.46646585656	16.1293468274816	6	choice	2	n/a	NaN	NaN	NaN	NaN	d	11	10	1.08747413762351	0.9	37.0335154537144	86.800615681217	38.7004681213976	40.5840886391862	283.590088860539	16.1236230039794	-1
288.394588623574	2.01615931346896	2	object_onset	1	switch	0.524785670536077	5	16	-11	n/a	NaN	NaN	NaN	NaN	NaN	NaN	NaN	NaN	NaN	NaN	NaN
295.126265236351	2.01603483382496	1	object_onset	2	switch	0.524785670536077	44	1	43	n/a	NaN	NaN	NaN	NaN	NaN	NaN	NaN	NaN	NaN	NaN	NaN
301.841127817548	2.01617819341482	9	object_onset	2	stay	1.08747413762351	19	71	-52	n/a	NaN	NaN	NaN	NaN	NaN	NaN	NaN	NaN	NaN	NaN	NaN
307.75631014182	2.01614651348791	8	object_onset	2	stay	0.36	16	44	-28	n/a	NaN	NaN	NaN	NaN	NaN	NaN	NaN	NaN	NaN	NaN	NaN
315.387680483458	2.01627035316778	1	object_onset	2	stay	1.27914033631967	44	1	43	n/a	NaN	NaN	NaN	NaN	NaN	NaN	NaN	NaN	NaN	NaN	NaN
321.436264983553	2.0161561134737	12	object_onset	2	stay	0.763675323681471	72	18	54	n/a	NaN	NaN	NaN	NaN	NaN	NaN	NaN	NaN	NaN	NaN	NaN
326.751612235355	2.01605787375593	10	object_onset	2	stay	0.458911756223351	50	5	45	n/a	NaN	NaN	NaN	NaN	NaN	NaN	NaN	NaN	NaN	NaN	NaN
332.383505455509	2.01619067337015	6	object_onset	1	switch	1.08747413762351	44	13	31	n/a	NaN	NaN	NaN	NaN	NaN	NaN	NaN	NaN	NaN	NaN	NaN
338.848530036223	2.01623835324426	4	object_onset	2	switch	0.458911756223351	2	14	-12	n/a	NaN	NaN	NaN	NaN	NaN	NaN	NaN	NaN	NaN	NaN	NaN
343.897179816122	2.01611707356642	7	object_onset	2	stay	1.08747413762351	2	90	-88	n/a	NaN	NaN	NaN	NaN	NaN	NaN	NaN	NaN	NaN	NaN	NaN
348.912693371443	2.01612667355221	2	object_onset	2	stay	1.27914033631967	16	5	11	n/a	NaN	NaN	NaN	NaN	NaN	NaN	NaN	NaN	NaN	NaN	NaN
354.861071760097	2.01615707346355	3	object_onset	1	switch	0.36	11	50	-39	n/a	NaN	NaN	NaN	NaN	NaN	NaN	NaN	NaN	NaN	NaN	NaN
360.10987584354	16.9790397403704	3	choice	1	n/a	NaN	NaN	NaN	NaN	d	12	5	0.458911756223351	0.814984662432368	6.8839714578754	59.8748977484675	22.0921244654867	47.6207587871056	377.081156566273	16.9712807227334	1
381.404496755044	2.01612699354882	2	object_onset	2	switch	0.36	16	5	11	n/a	NaN	NaN	NaN	NaN	NaN	NaN	NaN	NaN	NaN	NaN	NaN
387.819511559792	2.01615451349062	10	object_onset	1	switch	1.26	5	50	-45	n/a	NaN	NaN	NaN	NaN	NaN	NaN	NaN	NaN	NaN	NaN	NaN
395.067711484968	2.01615579347708	10	object_onset	1	stay	0	5	50	-45	n/a	NaN	NaN	NaN	NaN	NaN	NaN	NaN	NaN	NaN	NaN	NaN
401.749332561914	2.01614011352649	1	object_onset	2	switch	1.08747413762351	44	1	43	n/a	NaN	NaN	NaN	NaN	NaN	NaN	NaN	NaN	NaN	NaN	NaN
408.714266102907	2.01613915350754	3	object_onset	1	switch	0.458911756223351	11	50	-39	n/a	NaN	NaN	NaN	NaN	NaN	NaN	NaN	NaN	NaN	NaN	NaN
414.796026827447	2.01619611334172	3	object_onset	1	stay	0	11	50	-39	n/a	NaN	NaN	NaN	NaN	NaN	NaN	NaN	NaN	NaN	NaN	NaN
421.844285248459	2.01616635342361	9	object_onset	2	switch	0.648999229583518	19	71	-52	n/a	NaN	NaN	NaN	NaN	NaN	NaN	NaN	NaN	NaN	NaN	NaN
426.709695236059	2.01608027369366	7	object_onset	1	switch	0.458911756223351	90	2	88	n/a	NaN	NaN	NaN	NaN	NaN	NaN	NaN	NaN	NaN	NaN	NaN
433.491312185011	2.0160613937478	1	object_onset	2	switch	1.53792067415716	44	1	43	n/a	NaN	NaN	NaN	NaN	NaN	NaN	NaN	NaN	NaN	NaN	NaN
440.689529214142	2.01616539346287	10	object_onset	1	switch	1.08747413762351	5	50	-45	n/a	NaN	NaN	NaN	NaN	NaN	NaN	NaN	NaN	NaN	NaN	NaN
447.087922946783	2.01615739346016	5	object_onset	2	switch	1.27914033631967	3	71	-68	n/a	NaN	NaN	NaN	NaN	NaN	NaN	NaN	NaN	NaN	NaN	NaN
454.036051416158	2.01626651315019	7	object_onset	1	switch	0.569209978830308	90	2	88	n/a	NaN	NaN	NaN	NaN	NaN	NaN	NaN	NaN	NaN	NaN	NaN
459.418145995733	2.01614779350348	9	object_onset	2	switch	0.458911756223351	19	71	-52	n/a	NaN	NaN	NaN	NaN	NaN	NaN	NaN	NaN	NaN	NaN	NaN
465.716478896531	2.01623835324426	3	object_onset	1	switch	0.648999229583518	11	50	-39	n/a	NaN	NaN	NaN	NaN	NaN	NaN	NaN	NaN	NaN	NaN	NaN
472.148152213311	2.01626971314545	10	object_onset	1	stay	0.9	5	50	-45	n/a	NaN	NaN	NaN	NaN	NaN	NaN	NaN	NaN	NaN	NaN	NaN
478.696570153872	2.01616027345881	6	object_onset	1	stay	1.08747413762351	44	13	31	n/a	NaN	NaN	NaN	NaN	NaN	NaN	NaN	NaN	NaN	NaN	NaN
484.611641438474	4.69892278709449	6	choice	1	n/a	NaN	NaN	NaN	NaN	d	7	10	0.763675323681471	1.08747413762351	46.7766790247836	38.7004681213976	11.3101527179681	37.0335154537144	489.294121072919	4.68247963444446	1
492.77639264398	2.01615675346693	9	object_onset	2	switch	0.458911756223351	19	71	-52	n/a	NaN	NaN	NaN	NaN	NaN	NaN	NaN	NaN	NaN	NaN	NaN
497.691812407575	8.58119032616378	9	choice	2	n/a	NaN	NaN	NaN	NaN	d	3	5	0.648999229583518	0.524785670536077	31.2285063350093	16.3922524520963	59.8748977484675	1.4210854715202e-14	506.258167576481	8.56635516890674	-1
510.2886410887	2.01612347355695	8	object_onset	1	switch	0.36	44	16	28	n/a	NaN	NaN	NaN	NaN	NaN	NaN	NaN	NaN	NaN	NaN	NaN
516.40365451746	2.01611579357996	1	object_onset	2	switch	1.27914033631967	44	1	43	n/a	NaN	NaN	NaN	NaN	NaN	NaN	NaN	NaN	NaN	NaN	NaN
522.88545920988	2.0161324335204	3	object_onset	2	stay	0.458911756223351	50	11	39	n/a	NaN	NaN	NaN	NaN	NaN	NaN	NaN	NaN	NaN	NaN	NaN
528.084111437754	2.01616443344392	11	object_onset	2	stay	0.524785670536077	100	3	97	n/a	NaN	NaN	NaN	NaN	NaN	NaN	NaN	NaN	NaN	NaN	NaN
533.332713281765	3.06600652990164	11	choice	2	n/a	NaN	NaN	NaN	NaN	d	1	9	0.569209978830308	0.814984662432368	55.5141933777059	80.9956065625119	2.25042862220399	67.8652316736184	536.380283704784	3.04757042301935	1
541.514103479363	2.01612411357928	10	object_onset	1	switch	0.524785670536077	5	50	-45	n/a	NaN	NaN	NaN	NaN	NaN	NaN	NaN	NaN	NaN	NaN	NaN
548.72893870066	2.01616443344392	10	object_onset	2	switch	0	50	5	45	n/a	NaN	NaN	NaN	NaN	NaN	NaN	NaN	NaN	NaN	NaN	NaN
553.994127056911	2.01631387299858	12	object_onset	2	stay	0.458911756223351	72	18	54	n/a	NaN	NaN	NaN	NaN	NaN	NaN	NaN	NaN	NaN	NaN	NaN
558.976323268173	2.01608091368689	3	object_onset	2	stay	0.458911756223351	50	11	39	n/a	NaN	NaN	NaN	NaN	NaN	NaN	NaN	NaN	NaN	NaN	NaN
564.491590264224	5.36535286778235	3	choice	2	n/a	NaN	NaN	NaN	NaN	d	10	6	0.458911756223351	0.9	37.0335154537144	2.1316282072803e-14	32.5937547140354	6.10671340736224	569.837232468766	5.34564220454195	1
574.572421391407	2.01605307377758	4	object_onset	2	stay	0.763675323681471	2	14	-12	n/a	NaN	NaN	NaN	NaN	NaN	NaN	NaN	NaN	NaN	NaN	NaN
581.070745076257	2.01616347342497	6	object_onset	2	stay	0.458911756223351	13	44	-31	n/a	NaN	NaN	NaN	NaN	NaN	NaN	NaN	NaN	NaN	NaN	NaN
586.136129847931	2.01615195348859	10	object_onset	1	switch	1.08747413762351	5	50	-45	n/a	NaN	NaN	NaN	NaN	NaN	NaN	NaN	NaN	NaN	NaN	NaN
590.551677771145	9.04775858245557	10	choice	1	n/a	NaN	NaN	NaN	NaN	d	8	1	0.569209978830308	1.08747413762351	38.7004681213976	4.13404913999263	34.0707805259635	5.74709315020331	599.591600856191	9.0399230850453	1
604.414778005419	2.01624539322802	1	object_onset	1	stay	1.08747413762351	1	44	-43	n/a	NaN	NaN	NaN	NaN	NaN	NaN	NaN	NaN	NaN	NaN	NaN
608.44716575215	7.16489936510334	1	choice	1	n/a	NaN	NaN	NaN	NaN	d	5	8	1.27914033631967	1.26	42.8345172613902	70.1156602958224	28.3236873757602	41.8736656369023	615.591662296007	7.1444965438568	-1
619.394449103973	2.01614779350348	9	object_onset	1	stay	1.08747413762351	71	19	52	n/a	NaN	NaN	NaN	NaN	NaN	NaN	NaN	NaN	NaN	NaN	NaN
627.159120821714	2.01618267339654	2	object_onset	1	stay	0.9	5	16	-11	n/a	NaN	NaN	NaN	NaN	NaN	NaN	NaN	NaN	NaN	NaN	NaN
632.574422345642	2.01616091348114	11	object_onset	1	stay	0.853814968245462	3	100	-97	n/a	NaN	NaN	NaN	NaN	NaN	NaN	NaN	NaN	NaN	NaN	NaN
638.63955975807	2.01615451346152	1	object_onset	1	stay	0.569209978830308	1	44	-43	n/a	NaN	NaN	NaN	NaN	NaN	NaN	NaN	NaN	NaN	NaN	NaN
643.821616193745	2.01603675380466	5	object_onset	1	stay	1.26	71	3	68	n/a	NaN	NaN	NaN	NaN	NaN	NaN	NaN	NaN	NaN	NaN	NaN
649.153559557744	2.01619707336067	12	object_onset	2	switch	0.9	72	18	54	n/a	NaN	NaN	NaN	NaN	NaN	NaN	NaN	NaN	NaN	NaN	NaN
656.934929147392	2.01619451335864	4	object_onset	1	switch	1.08747413762351	14	2	12	n/a	NaN	NaN	NaN	NaN	NaN	NaN	NaN	NaN	NaN	NaN	NaN
662.366895903338	2.01615195348859	8	object_onset	1	stay	1.26	44	16	28	n/a	NaN	NaN	NaN	NaN	NaN	NaN	NaN	NaN	NaN	NaN	NaN
666.465897538204	5.74854600417893	8	choice	1	n/a	NaN	NaN	NaN	NaN	d	10	1	0.569209978830308	1.27914033631967	38.7004681213976	42.8345172613902	34.0707805259635	28.3236873757602	672.19471367923	5.72881614102516	1
676.779816954106	2.0161561134737	7	object_onset	1	stay	0.524785670536077	90	2	88	n/a	NaN	NaN	NaN	NaN	NaN	NaN	NaN	NaN	NaN	NaN	NaN
682.078478493961	2.01630491306423	12	object_onset	2	switch	0.9	72	18	54	n/a	NaN	NaN	NaN	NaN	NaN	NaN	NaN	NaN	NaN	NaN	NaN
687.14401718523	2.01614555349806	5	object_onset	2	stay	0.9	3	71	-68	n/a	NaN	NaN	NaN	NaN	NaN	NaN	NaN	NaN	NaN	NaN	NaN
692.109428484837	2.01615515348385	2	object_onset	2	stay	0.853814968245462	16	5	11	n/a	NaN	NaN	NaN	NaN	NaN	NaN	NaN	NaN	NaN	NaN	NaN
697.774665928941	11.0971952400869	2	choice	2	n/a	NaN	NaN	NaN	NaN	d	7	11	1.27914033631967	0.853814968245462	14.272887645719	83.8378807534661	85.4771471461812	1.88362051778864	708.864312390768	11.0896464618272	-1
712.520909219777	2.01615163349197	7	object_onset	2	stay	1.27914033631967	2	90	-88	n/a	NaN	NaN	NaN	NaN	NaN	NaN	NaN	NaN	NaN	NaN	NaN
719.285869896674	2.01619355336879	12	object_onset	2	stay	0.9	72	18	54	n/a	NaN	NaN	NaN	NaN	NaN	NaN	NaN	NaN	NaN	NaN	NaN
724.717832812632	2.01619419336203	3	object_onset	1	switch	0.458911756223351	11	50	-39	n/a	NaN	NaN	NaN	NaN	NaN	NaN	NaN	NaN	NaN	NaN	NaN
730.183126832591	2.01604571376811	5	object_onset	2	switch	0.814984662432368	3	71	-68	n/a	NaN	NaN	NaN	NaN	NaN	NaN	NaN	NaN	NaN	NaN	NaN
734.465365379729	6.6483680527017	5	choice	2	n/a	NaN	NaN	NaN	NaN	d	2	11	0.853814968245462	1.20747670784989	13.5499782611421	97.3878590146082	65.9816111558298	67.8652316736184	741.097363239591	6.63199785986217	1
744.71282386707	2.01615483345813	6	object_onset	2	stay	0.36	13	44	-31	n/a	NaN	NaN	NaN	NaN	NaN	NaN	NaN	NaN	NaN	NaN	NaN
751.461097232037	2.01615931346896	11	object_onset	2	stay	0.9	100	3	97	n/a	NaN	NaN	NaN	NaN	NaN	NaN	NaN	NaN	NaN	NaN	NaN
757.043035076058	2.01616827343241	4	object_onset	1	switch	1.27914033631967	14	2	12	n/a	NaN	NaN	NaN	NaN	NaN	NaN	NaN	NaN	NaN	NaN	NaN
763.00819805637	2.01617147342768	6	object_onset	1	stay	0.458911756223351	44	13	31	n/a	NaN	NaN	NaN	NaN	NaN	NaN	NaN	NaN	NaN	NaN	NaN
768.356830332312	2.01618075341685	7	object_onset	1	stay	0.763675323681471	90	2	88	n/a	NaN	NaN	NaN	NaN	NaN	NaN	NaN	NaN	NaN	NaN	NaN
772.589119903336	10.4307059595594	7	choice	1	n/a	NaN	NaN	NaN	NaN	d	4	8	0.524785670536077	1.08747413762351	46.7766790247836	76.3446034913719	14.272887645719	0.216144997429269	782.998502404313	10.4093825009768	1
788.068467642792	2.01624155323952	4	object_onset	2	switch	1.08747413762351	2	14	-12	n/a	NaN	NaN	NaN	NaN	NaN	NaN	NaN	NaN	NaN	NaN	NaN
794.383582895272	2.01616443344392	11	object_onset	2	stay	1.27914033631967	100	3	97	n/a	NaN	NaN	NaN	NaN	NaN	NaN	NaN	NaN	NaN	NaN	NaN
799.282354066818	2.01620859332616	12	object_onset	1	switch	0.36	18	72	-54	n/a	NaN	NaN	NaN	NaN	NaN	NaN	NaN	NaN	NaN	NaN	NaN
804.31441797447	2.01615547348047	9	object_onset	1	stay	0.458911756223351	71	19	52	n/a	NaN	NaN	NaN	NaN	NaN	NaN	NaN	NaN	NaN	NaN	NaN
808.963274665759	6.0318123883917	9	choice	1	n/a	NaN	NaN	NaN	NaN	d	6	2	0.458911756223351	0.9	27.2811430344321	65.9816111558297	5.80500911870512	2.84227419095423	814.978406142181	6.01513147642254	1
819.79383099376	2.01617051343783	11	object_onset	2	switch	0.814984662432368	100	3	97	n/a	NaN	NaN	NaN	NaN	NaN	NaN	NaN	NaN	NaN	NaN	NaN
825.309115589742	2.01619547334849	6	object_onset	2	stay	0.9	13	44	-31	n/a	NaN	NaN	NaN	NaN	NaN	NaN	NaN	NaN	NaN	NaN	NaN
830.457852121384	2.01612955355085	11	object_onset	1	switch	0.9	3	100	-97	n/a	NaN	NaN	NaN	NaN	NaN	NaN	NaN	NaN	NaN	NaN	NaN
837.606125614344	2.01607739369501	7	object_onset	2	switch	1.26	2	90	-88	n/a	NaN	NaN	NaN	NaN	NaN	NaN	NaN	NaN	NaN	NaN	NaN
843.604537778912	2.01600347392377	11	object_onset	1	switch	1.26	3	100	-97	n/a	NaN	NaN	NaN	NaN	NaN	NaN	NaN	NaN	NaN	NaN	NaN
848.719871526759	2.01622267329367	9	object_onset	1	stay	0.814984662432368	71	19	52	n/a	NaN	NaN	NaN	NaN	NaN	NaN	NaN	NaN	NaN	NaN	NaN
855.101615067339	2.01617499341955	1	object_onset	1	stay	1.08747413762351	1	44	-43	n/a	NaN	NaN	NaN	NaN	NaN	NaN	NaN	NaN	NaN	NaN	NaN
861.116743343766	2.01615963346558	2	object_onset	2	switch	0.524785670536077	16	5	11	n/a	NaN	NaN	NaN	NaN	NaN	NaN	NaN	NaN	NaN	NaN	NaN
867.248531124234	2.0160889136605	9	object_onset	1	switch	0.9	71	19	52	n/a	NaN	NaN	NaN	NaN	NaN	NaN	NaN	NaN	NaN	NaN	NaN
872.8971449362	2.01614011352649	7	object_onset	1	stay	0.458911756223351	90	2	88	n/a	NaN	NaN	NaN	NaN	NaN	NaN	NaN	NaN	NaN	NaN	NaN
880.045309629495	2.01619035337353	5	object_onset	2	switch	0.569209978830308	3	71	-68	n/a	NaN	NaN	NaN	NaN	NaN	NaN	NaN	NaN	NaN	NaN	NaN
887.226858866634	2.01618267339654	3	object_onset	2	stay	0.814984662432368	50	11	39	n/a	NaN	NaN	NaN	NaN	NaN	NaN	NaN	NaN	NaN	NaN	NaN
893.791830039525	2.01620987331262	2	object_onset	2	stay	0.36	16	5	11	n/a	NaN	NaN	NaN	NaN	NaN	NaN	NaN	NaN	NaN	NaN	NaN
899.023931131058	2.01611355360365	1	object_onset	1	switch	0.524785670536077	1	44	-43	n/a	NaN	NaN	NaN	NaN	NaN	NaN	NaN	NaN	NaN	NaN	NaN
904.855714655539	2.01619259334984	11	object_onset	1	stay	0.569209978830308	3	100	-97	n/a	NaN	NaN	NaN	NaN	NaN	NaN	NaN	NaN	NaN	NaN	NaN
909.704413971282	6.56511965245591	11	choice	1	n/a	NaN	NaN	NaN	NaN	d	9	12	0.36	0.814984662432368	14.8743053830263	67.8652316736184	27.6749757620158	80.9956065625119	916.25356374972	6.54914977843873	1
921.384851691604	2.01618523339857	4	object_onset	1	stay	1.27914033631967	14	2	12	n/a	NaN	NaN	NaN	NaN	NaN	NaN	NaN	NaN	NaN	NaN	NaN
928.749687440897	2.01618203340331	7	object_onset	2	switch	1.08747413762351	2	90	-88	n/a	NaN	NaN	NaN	NaN	NaN	NaN	NaN	NaN	NaN	NaN	NaN
935.264732037554	5.54860066002584	7	choice	2	n/a	NaN	NaN	NaN	NaN	d	4	3	1.08747413762351	1.08747413762351	0.216144997429269	48.3436681716825	76.3446034913719	79.370433738819	940.801319932187	5.53658789463225	1
944.062483660033	2.01619163335999	12	object_onset	1	switch	0.9	18	72	-54	n/a	NaN	NaN	NaN	NaN	NaN	NaN	NaN	NaN	NaN	NaN	NaN
949.960995632311	2.01610715361312	11	object_onset	1	stay	0.36	3	100	-97	n/a	NaN	NaN	NaN	NaN	NaN	NaN	NaN	NaN	NaN	NaN	NaN
957.175881413452	2.01615003347979	2	object_onset	1	stay	0.853814968245462	5	16	-11	n/a	NaN	NaN	NaN	NaN	NaN	NaN	NaN	NaN	NaN	NaN	NaN
964.107420810615	2.01619483335526	8	object_onset	1	stay	1.20747670784989	44	16	28	n/a	NaN	NaN	NaN	NaN	NaN	NaN	NaN	NaN	NaN	NaN	NaN
970.389147679234	2.01619195338571	7	object_onset	2	switch	0.524785670536077	2	90	-88	n/a	NaN	NaN	NaN	NaN	NaN	NaN	NaN	NaN	NaN	NaN	NaN
976.837547667848	2.01619131336338	2	object_onset	1	switch	1.27914033631967	5	16	-11	n/a	NaN	NaN	NaN	NaN	NaN	NaN	NaN	NaN	NaN	NaN	NaN
982.069445879984	7.59823763708118	2	choice	1	n/a	NaN	NaN	NaN	NaN	d	8	7	1.27914033631967	1.20747670784989	85.4771471461812	38.7004681213976	14.272887645719	0	989.650257967238	7.58081208725343	-1
993.366737823788	2.01604923378909	8	object_onset	2	switch	1.20747670784989	16	44	-28	n/a	NaN	NaN	NaN	NaN	NaN	NaN	NaN	NaN	NaN	NaN	NaN
1000.28166766878	2.01617275344324	9	object_onset	2	stay	0.36	19	71	-52	n/a	NaN	NaN	NaN	NaN	NaN	NaN	NaN	NaN	NaN	NaN	NaN
1006.46329722568	2.01626715317252	11	object_onset	2	stay	0.814984662432368	100	3	97	n/a	NaN	NaN	NaN	NaN	NaN	NaN	NaN	NaN	NaN	NaN	NaN
1012.94512143804	2.01607035371126	10	object_onset	2	stay	0.524785670536077	50	5	45	n/a	NaN	NaN	NaN	NaN	NaN	NaN	NaN	NaN	NaN	NaN	NaN
1018.41038857808	10.597329799697	10	choice	2	n/a	NaN	NaN	NaN	NaN	d	5	4	1.27914033631967	1.53792067415716	47.6207587871056	48.5598131691118	65.9816111558298	9.13254365480929	1028.99974112073	10.5893525426509	1
1032.00696445993	2.01619035337353	8	object_onset	2	stay	0.569209978830308	16	44	-28	n/a	NaN	NaN	NaN	NaN	NaN	NaN	NaN	NaN	NaN	NaN	NaN
1037.35565305571	2.01614843349671	2	object_onset	2	stay	1.20747670784989	16	5	11	n/a	NaN	NaN	NaN	NaN	NaN	NaN	NaN	NaN	NaN	NaN	NaN
1043.47073976425	2.01615963346558	6	object_onset	1	switch	0.524785670536077	44	13	31	n/a	NaN	NaN	NaN	NaN	NaN	NaN	NaN	NaN	NaN	NaN	NaN
1048.45285053577	2.01615099349874	9	object_onset	1	stay	0.458911756223351	71	19	52	n/a	NaN	NaN	NaN	NaN	NaN	NaN	NaN	NaN	NaN	NaN	NaN
1053.46821625152	2.0161897133803	9	object_onset	1	stay	0	71	19	52	n/a	NaN	NaN	NaN	NaN	NaN	NaN	NaN	NaN	NaN	NaN	NaN
1059.03347798358	2.01616091345204	12	object_onset	1	stay	0.458911756223351	18	72	-54	n/a	NaN	NaN	NaN	NaN	NaN	NaN	NaN	NaN	NaN	NaN	NaN
1065.3985370922	2.01619259337895	4	object_onset	1	stay	1.08747413762351	14	2	12	n/a	NaN	NaN	NaN	NaN	NaN	NaN	NaN	NaN	NaN	NaN	NaN
1072.89665501763	2.01618363338639	5	object_onset	1	stay	0.524785670536077	71	3	68	n/a	NaN	NaN	NaN	NaN	NaN	NaN	NaN	NaN	NaN	NaN	NaN
1078.21197506951	2.01618843336473	3	object_onset	2	switch	0.814984662432368	50	11	39	n/a	NaN	NaN	NaN	NaN	NaN	NaN	NaN	NaN	NaN	NaN	NaN
1084.49375505798	2.01615259348182	2	object_onset	1	switch	0.36	5	16	-11	n/a	NaN	NaN	NaN	NaN	NaN	NaN	NaN	NaN	NaN	NaN	NaN
1089.62567243807	2.01627003314206	5	object_onset	1	stay	0.853814968245462	71	3	68	n/a	NaN	NaN	NaN	NaN	NaN	NaN	NaN	NaN	NaN	NaN	NaN
1096.00747261848	2.01615835345001	11	object_onset	2	switch	1.20747670784989	100	3	97	n/a	NaN	NaN	NaN	NaN	NaN	NaN	NaN	NaN	NaN	NaN	NaN
1102.40586699109	2.01614779350348	7	object_onset	2	stay	1.26	2	90	-88	n/a	NaN	NaN	NaN	NaN	NaN	NaN	NaN	NaN	NaN	NaN	NaN
1107.42127014673	2.0162153133133	5	object_onset	1	switch	0.569209978830308	71	3	68	n/a	NaN	NaN	NaN	NaN	NaN	NaN	NaN	NaN	NaN	NaN	NaN
1114.36951829577	2.01618523339857	6	object_onset	2	switch	0.36	13	44	-31	n/a	NaN	NaN	NaN	NaN	NaN	NaN	NaN	NaN	NaN	NaN	NaN
1119.68490153566	2.01609580544755	12	object_onset	1	switch	0.648999229583518	18	72	-54	n/a	NaN	NaN	NaN	NaN	NaN	NaN	NaN	NaN	NaN	NaN	NaN
1125.93326547218	2.01616443344392	4	object_onset	2	switch	1.08747413762351	2	14	-12	n/a	NaN	NaN	NaN	NaN	NaN	NaN	NaN	NaN	NaN	NaN	NaN
1131.28197486789	6.79824794107117	4	choice	2	n/a	NaN	NaN	NaN	NaN	d	11	9	0.9	1.27914033631967	17.3313068341025	98.3269133966143	56.8490675010204	11.0161641725979	1138.06177934207	6.7798044741794	1
1143.04561618861	2.01619131336338	12	object_onset	1	switch	1.08747413762351	18	72	-54	n/a	NaN	NaN	NaN	NaN	NaN	NaN	NaN	NaN	NaN	NaN	NaN
