onset	duration	map	object_left	object_right	decision	chosen_object	unchosen_object	chosen_value	unchosen_value	response_time	trial_type	button	warning_onset
10.5392108706437	3.68236460408662	2	2	4	1	2	4	16.1621192465339	1.67308660338568	3.66303012538992	choice	14.2215754747303	NaN
16.2876626499637	2.01612907872186	2	2	4	1	2	4	16.1621192465339	1.67308660338568	3.66303012538992	feedback	14.2215754747303	NaN
19.1202938587376	4.18223676568596	2	10	4	1	10	4	50.2328997724974	1.67308660338568	4.17076234887645	choice	23.3025306244235	NaN
25.818503385075	2.01617003820138	2	10	4	1	10	4	50.2328997724974	1.67308660338568	4.17076234887645	feedback	23.3025306244235	NaN
31.4003687633958	4.66544001530565	2	3	9	2	9	3	19.0043934374881	50.2328997724975	4.65982408539276	choice	36.0658087787015	NaN
41.064531034659	2.01613611861831	2	3	9	2	9	3	19.0043934374881	50.2328997724975	4.65982408539276	feedback	36.0658087787015	NaN
44.5301521037036	3.94906143570552	2	8	4	2	4	8	1.67308660338568	16.1621192465339	3.93739790127438	choice	48.4792135394091	NaN
51.7116295188607	2.01624555725721	2	8	4	2	4	8	1.67308660338568	16.1621192465339	3.93739790127438	feedback	48.4792135394091	NaN
55.8106241234054	2.89924445743964	2	5	2	1	5	2	2.61214098539182	16.1621192465339	2.8862810992141	choice	58.7098685808451	NaN
63.5253172840457	2.01612619873777	2	5	2	1	5	2	2.61214098539182	16.1621192465339	2.8862810992141	feedback	58.7098685808451	NaN
67.0243712158408	6.48165958889876	2	8	10	1	8	10	16.1621192465339	50.2328997724974	6.46440764420549	choice	73.5060308047396	NaN
77.8715532830101	2.01612971870054	2	8	10	1	8	10	16.1621192465339	50.2328997724974	6.46440764420549	feedback	73.5060308047396	NaN
80.8707590529229	4.21556626973324	2	10	1	2	1	10	44.4858066222941	50.2328997724974	4.20146084576845	choice	85.0863253226562	NaN
88.5854090140929	2.01613611861831	2	10	1	2	1	10	44.4858066222941	50.2328997724974	4.20146084576845	feedback	85.0863253226562	NaN
92.9842555564828	3.36576727523061	2	7	4	1	7	4	1.88923160081495	1.67308660338568	3.35943103430327	choice	96.3500228317134	NaN
99.0993094806181	2.01610571899801	2	7	4	1	7	4	1.88923160081495	1.67308660338568	3.35943103430327	feedback	96.3500228317134	NaN
102.43174789178	3.96561290915997	2	9	7	1	9	7	19.0043934374881	1.88923160081495	3.95726549332903	choice	106.39736080094	NaN
109.363268106419	2.01612843871408	2	9	7	1	9	7	19.0043934374881	1.88923160081495	3.95726549332903	feedback	106.39736080094	NaN
114.445252043253	2.94926911311632	2	2	3	2	3	2	50.2328997724975	16.1621192465339	2.94421733617492	choice	117.39452115637	NaN
120.4104003182	2.01612555875909	2	2	3	2	3	2	50.2328997724975	16.1621192465339	2.94421733617492	feedback	117.39452115637	NaN
126.325512737603	2.28272767155431	1	7	3	1	7	3	90.3707077873196	11.0002740485006	2.26809681415034	choice	128.608240409158	123.825512737603
133.273667624628	2.01612331878277	1	7	3	1	7	3	90.3707077873196	11.0002740485006	2.26809681415034	feedback	128.608240409158	123.825512737603
136.389520258788	4.11559791733453	1	4	8	2	8	4	43.594028762536	14.0261042959477	4.10890872082382	choice	140.505118176123	NaN
145.137204367682	2.01618123806838	1	4	8	2	8	4	43.594028762536	14.0261042959477	4.10890872082382	feedback	140.505118176123	NaN
148.936135837022	3.21594194504723	1	8	12	2	12	8	17.884245506376	43.594028762536	3.2081670020707	choice	152.15207778207	NaN
154.851359295033	2.01611115894048	1	8	12	2	12	8	17.884245506376	43.594028762536	3.2081670020707	feedback	152.15207778207	NaN
158.700315420065	5.94843648350798	1	10	6	2	6	10	43.594028762536	4.89356064113839	5.9410336958972	choice	164.648751903573	NaN
167.881247562036	2.01613995856314	1	10	6	2	6	10	43.594028762536	4.89356064113839	5.9410336958972	feedback	164.648751903573	NaN
171.280385940787	2.51599996032019	1	6	10	2	10	6	4.89356064113839	43.594028762536	2.5047751404054	choice	173.796385901107	NaN
176.579001734062	2.01613259865553	1	6	10	2	10	6	4.89356064113839	43.594028762536	2.5047751404054	feedback	173.796385901107	NaN
179.328278463086	2.36603479187761	1	10	2	2	2	10	4.89356064113839	4.89356064113839	2.3578480140568	choice	181.694313254964	NaN
185.843250596226	2.01614091856754	1	10	2	2	2	10	4.89356064113839	4.89356064113839	2.3578480140568	feedback	181.694313254964	NaN
189.092267648506	3.99905793175276	1	3	1	1	3	1	11.0002740485006	0.759511501145757	3.99263177195098	choice	193.091325580259	NaN
195.640551045915	2.01625163719291	1	3	1	1	3	1	11.0002740485006	0.759511501145757	3.99263177195098	feedback	193.091325580259	NaN
198.539785903471	1.76631427639222	1	6	8	2	8	6	43.594028762536	43.594028762536	1.76040427015687	choice	200.306100179863	NaN
202.37223983444	2.0160973991151	1	6	8	2	8	6	43.594028762536	43.594028762536	1.76040427015687	feedback	200.306100179863	NaN
206.421143224128	3.69905623578234	1	12	3	1	12	3	17.884245506376	11.0002740485006	3.6786894499528	choice	210.120199459911	NaN
214.752317331076	2.01613611861831	1	12	3	1	12	3	17.884245506376	11.0002740485006	3.6786894499528	feedback	210.120199459911	NaN
218.834575184505	4.2655710856634	1	10	6	2	6	10	43.594028762536	4.89356064113839	4.25205893430393	choice	223.100146270168	NaN
225.666121926799	2.0160164401168	1	10	6	2	6	10	43.594028762536	4.89356064113839	4.25205893430393	feedback	223.100146270168	NaN
232.214377804557	3.38243586721364	2	10	11	2	11	10	100	50.2328997724974	3.36425817407144	choice	235.596813671771	229.714377804557
238.179512319679	2.01613355865993	2	10	11	2	11	10	100	50.2328997724974	3.36425817407144	feedback	235.596813671771	229.714377804557
242.145108589044	3.34915308257041	2	7	1	2	1	7	44.4858066222941	1.88923160081495	3.33011268019618	choice	245.494261671614	NaN
249.759802997651	2.01611403891002	2	7	1	2	1	7	44.4858066222941	1.88923160081495	3.33011268019618	feedback	245.494261671614	NaN
253.425509249646	5.78182160286815	2	2	1	2	1	2	44.4858066222941	16.1621192465339	5.76213064861076	choice	259.207330852514	NaN
261.856611069496	2.01612651873438	2	2	1	2	1	2	44.4858066222941	16.1621192465339	5.76213064861076	feedback	259.207330852514	NaN
265.338938810048	6.03182712278794	2	2	5	1	2	5	16.1621192465339	2.61214098539182	6.02199140554876	choice	271.370765932836	NaN
274.070078485427	2.01612203879631	2	2	5	1	2	5	16.1621192465339	2.61214098539182	6.02199140554876	feedback	271.370765932836	NaN
277.969085825811	2.91587336990051	2	5	8	2	8	5	16.1621192465339	2.61214098539182	2.90655156623689	choice	280.884959195711	NaN
285.600379067269	2.01613835859462	2	5	8	2	8	5	16.1621192465339	2.61214098539182	2.90655156623689	feedback	280.884959195711	NaN
289.016152758413	1.48295685269113	2	11	8	1	11	8	100	16.1621192465339	1.47860330702679	choice	290.499109611104	NaN
293.398367508373	2.01609483914217	2	11	8	1	11	8	100	16.1621192465339	1.47860330702679	feedback	290.499109611104	NaN
297.563931202138	1.8328648058523	2	1	10	1	1	10	44.4858066222941	50.2328997724974	1.82064447835728	choice	299.39679600799	NaN
302.72920945946	2.01614603849885	2	1	10	1	1	10	44.4858066222941	50.2328997724974	1.82064447835728	feedback	299.39679600799	NaN
305.361886683648	1.43296547658974	2	1	8	1	1	8	44.4858066222941	16.1621192465339	1.42674027428438	choice	306.794852160237	NaN
309.827378794318	2.01614795846399	2	1	8	1	1	8	44.4858066222941	16.1621192465339	1.42674027428438	feedback	306.794852160237	NaN
314.69275423442	1.09971011562448	2	11	10	1	11	10	100	50.2328997724974	1.08361815645185	choice	315.792464350045	NaN
319.974686395915	2.01617963807075	2	11	10	1	11	10	100	50.2328997724974	1.08361815645185	feedback	315.792464350045	NaN
324.156932441489	2.84928380092606	2	3	9	1	3	9	50.2328997724975	19.0043934374881	2.83570093044546	choice	327.006216242415	NaN
330.488530543138	2.01624043732591	2	3	9	1	3	9	50.2328997724975	19.0043934374881	2.83570093044546	feedback	327.006216242415	NaN
336.986849124121	2.64936981585925	1	1	9	2	9	1	70.8751717969681	0.759511501145757	2.64261726013501	choice	339.636218939981	334.486849124121
344.368304523552	2.0161258787557	1	1	9	2	9	1	70.8751717969681	0.759511501145757	2.64261726013501	feedback	339.636218939981	334.486849124121
348.467224889027	1.54962066073494	1	9	3	1	9	3	70.8751717969681	11.0002740485006	1.53538851835765	choice	350.016845549762	NaN
353.099337000269	2.01613483864639	1	9	3	1	9	3	70.8751717969681	11.0002740485006	1.53538851835765	feedback	350.016845549762	NaN
357.881450119501	1.46628058081842	1	6	8	2	8	6	43.594028762536	43.594028762536	1.44771377253346	choice	359.34773070032	NaN
363.646574010752	2.01612747873878	1	6	8	2	8	6	43.594028762536	43.594028762536	1.44771377253346	feedback	359.34773070032	NaN
366.929091124941	3.08252089013695	1	1	12	2	12	1	17.884245506376	0.759511501145757	3.07329764524184	choice	370.011612015078	NaN
374.227169004924	2.01612651874893	1	1	12	2	12	1	17.884245506376	0.759511501145757	3.07329764524184	feedback	370.011612015078	NaN
379.192527837251	4.21556658972986	1	8	9	1	8	9	43.594028762536	70.8751717969681	4.19577611671411	choice	383.408094426981	NaN
387.64032000881	2.01613675861154	1	8	9	1	8	9	43.594028762536	70.8751717969681	4.19577611671411	feedback	383.408094426981	NaN
390.389558978306	1.71622146155278	1	3	7	2	7	3	90.3707077873196	11.0002740485006	1.70940778659133	choice	392.105780439859	NaN
395.354924530548	2.01613995856314	1	3	7	2	7	3	90.3707077873196	11.0002740485006	1.70940778659133	feedback	392.105780439859	NaN
400.203543699768	2.39946893462911	1	10	7	2	7	10	90.3707077873196	4.89356064113839	2.39260502030083	choice	402.603012634398	NaN
405.069083937837	2.01610091904877	1	10	7	2	7	10	90.3707077873196	4.89356064113839	2.39260502030083	feedback	402.603012634398	NaN
409.967753362434	5.18197468895232	1	2	10	2	10	2	4.89356064113839	4.89356064113839	5.17456326144747	choice	415.149728051387	NaN
417.849056283783	2.01598604048195	1	2	10	2	10	2	4.89356064113839	4.89356064113839	5.17456326144747	feedback	415.149728051387	NaN
420.948242885934	1.56622877345944	1	7	4	1	7	4	90.3707077873196	14.0261042959477	1.54892466941965	choice	422.514471659393	NaN
424.697262338159	2.01610795897432	1	7	4	1	7	4	90.3707077873196	14.0261042959477	1.54892466941965	feedback	422.514471659393	NaN
427.396519211441	2.06615277440869	1	9	10	1	9	10	70.8751717969681	4.89356064113839	2.06060724362032	choice	429.46267198585	NaN
431.51214528842	2.01613739860477	1	9	10	1	9	10	70.8751717969681	4.89356064113839	2.06060724362032	feedback	429.46267198585	NaN
437.393826125044	5.49862481716264	2	7	5	1	7	5	1.88923160081495	2.61214098539182	5.49070107605075	choice	442.892450942207	434.893826125044
445.541795478392	2.01614155856078	2	7	5	1	7	5	1.88923160081495	2.61214098539182	5.49070107605075	feedback	442.892450942207	434.893826125044
448.874260129232	4.03226935728162	2	5	7	1	5	7	2.61214098539182	1.88923160081495	4.01874536606192	choice	452.906529486514	NaN
456.039021593009	2.01604907971341	2	5	7	1	5	7	2.61214098539182	1.88923160081495	4.01874536606192	feedback	452.906529486514	NaN
460.037967206168	2.24948040649178	2	4	11	2	11	4	100	1.67308660338568	2.2453924575093	choice	462.28744761266	NaN
464.320065765583	2.01628267679189	2	4	11	2	11	4	100	1.67308660338568	2.2453924575093	feedback	462.28744761266	NaN
468.385782065438	1.11635694786673	2	5	11	2	11	5	100	2.61214098539182	1.10096769992379	choice	469.502139013304	NaN
472.534696686984	2.01612491876585	2	5	11	2	11	5	100	2.61214098539182	1.10096769992379	feedback	469.502139013304	NaN
475.233914840748	2.33278880678699	2	4	2	2	2	4	16.1621192465339	1.67308660338568	2.31995952689613	choice	477.566703647535	NaN
482.198848398373	2.01611947882338	2	4	2	2	2	4	16.1621192465339	1.67308660338568	2.31995952689613	feedback	477.566703647535	NaN
485.647947433608	4.54880883087753	2	3	10	2	10	3	50.2328997724974	50.2328997724975	4.52932939397579	choice	490.196756264486	NaN
493.19596427436	2.01611147893709	2	3	10	2	10	3	50.2328997724974	50.2328997724975	4.52932939397579	feedback	490.196756264486	NaN
498.294596643434	1.8661712701869	2	2	11	2	11	2	100	16.1621192465339	1.84769054081698	choice	500.160767913621	NaN
502.843445793798	2.01612971870054	2	2	11	2	11	2	100	16.1621192465339	1.84769054081698	feedback	500.160767913621	NaN
505.526027355183	4.16558577348769	2	8	9	2	9	8	19.0043934374881	16.1621192465339	4.15851866168668	choice	509.691613128671	NaN
513.957147414796	2.01617643811915	2	8	9	2	9	8	19.0043934374881	16.1621192465339	4.15851866168668	feedback	509.691613128671	NaN
518.106078996134	3.29915338657156	2	4	9	1	4	9	1.67308660338568	19.0043934374881	3.28155584618798	choice	521.405232382705	NaN
525.020915898975	2.016138038598	2	4	9	1	4	9	1.67308660338568	19.0043934374881	3.28155584618798	feedback	521.405232382705	NaN
529.036527544129	2.83259920917044	2	7	3	2	3	7	50.2328997724975	1.88923160081495	2.82143582848948	choice	531.869126753299	NaN
535.201585324219	2.01612267878954	2	7	3	2	3	7	50.2328997724975	1.88923160081495	2.82143582848948	feedback	531.869126753299	NaN
540.133635132239	5.16529329713376	1	1	12	2	12	1	17.884245506376	0.759511501145757	5.1547023893072	choice	545.298928429373	537.633635132239
548.148200070456	2.01613067869039	1	1	12	2	12	1	17.884245506376	0.759511501145757	5.1547023893072	feedback	545.298928429373	537.633635132239
550.730881758602	5.2652853292384	1	8	1	1	8	1	43.594028762536	0.759511501145757	5.24660684233822	choice	555.99616708784	NaN
559.228651546422	2.01601772010326	1	8	1	1	8	1	43.594028762536	0.759511501145757	5.24660684233822	feedback	555.99616708784	NaN
564.410590395826	2.13276538309583	1	8	1	1	8	1	43.594028762536	0.759511501145757	2.12786944420077	choice	566.543355778922	NaN
569.325972891864	2.01614123854961	1	8	1	1	8	1	43.594028762536	0.759511501145757	2.12786944420077	feedback	566.543355778922	NaN
574.041395963373	3.9656205890642	1	9	3	1	9	3	70.8751717969681	11.0002740485006	3.96006577838853	choice	578.007016552438	NaN
582.539169591168	2.01614475851238	1	9	3	1	9	3	70.8751717969681	11.0002740485006	3.96006577838853	feedback	578.007016552438	NaN
586.954706485267	4.84873692775727	1	2	6	2	6	2	43.594028762536	4.89356064113839	4.82841526137781	choice	591.803443413024	NaN
594.552712142147	2.01602572000411	1	2	6	2	6	2	43.594028762536	4.89356064113839	4.82841526137781	feedback	591.803443413024	NaN
599.534721646676	2.09947171859676	1	12	7	2	7	12	90.3707077873196	17.884245506376	2.09543976890563	choice	601.634193365273	NaN
606.249625044686	2.01612715872761	1	12	7	2	7	12	90.3707077873196	17.884245506376	2.09543976890563	feedback	601.634193365273	NaN
610.981714148205	1.08307608321775	1	7	8	1	7	8	90.3707077873196	43.594028762536	1.06745515816147	choice	612.064790231423	NaN
616.863547622925	2.01613035869377	1	7	8	1	7	8	90.3707077873196	43.594028762536	1.06745515816147	feedback	612.064790231423	NaN
619.712759744754	4.14890246170398	1	3	2	1	3	2	11.0002740485006	4.89356064113839	4.13579510527779	choice	623.861662206458	NaN
626.394341638617	2.01616523825214	1	3	2	1	3	2	11.0002740485006	4.89356064113839	4.13579510527779	feedback	623.861662206458	NaN
630.443274787933	3.24915433055139	1	1	10	2	10	1	4.89356064113839	0.759511501145757	3.23479546974704	choice	633.692429118484	NaN
637.091539657587	2.01612811871746	1	1	10	2	10	1	4.89356064113839	0.759511501145757	3.23479546974704	feedback	633.692429118484	NaN
639.874173730306	1.81615109443374	1	8	7	2	7	8	90.3707077873196	43.594028762536	1.80966157543298	choice	641.69032482474	NaN
643.789702784503	2.01620235780138	1	8	7	2	7	8	90.3707077873196	43.594028762536	1.80966157543298	feedback	641.69032482474	NaN
648.571869663065	4.83205457596341	2	9	4	1	9	4	19.0043934374881	1.67308660338568	4.81524262577295	choice	653.403924239028	646.071869663065
655.736676246277	2.01612843871408	2	9	4	1	9	4	19.0043934374881	1.67308660338568	4.81524262577295	feedback	653.403924239028	646.071869663065
658.585814449034	2.11621902958723	2	3	2	1	3	2	50.2328997724975	16.1621192465339	2.10811865067808	choice	660.702033478621	NaN
662.918123581811	2.01613899858785	2	3	2	1	3	2	50.2328997724975	16.1621192465339	2.10811865067808	feedback	660.702033478621	NaN
667.100358107535	3.49910353118321	2	7	5	1	7	5	1.88923160081495	2.61214098539182	3.49490838353813	choice	670.599461638718	NaN
673.182114527212	2.01600076031173	2	7	5	1	7	5	1.88923160081495	2.61214098539182	3.49490838353813	feedback	670.599461638718	NaN
676.131295641433	2.86594087306003	2	5	7	1	5	7	2.61214098539182	1.88923160081495	2.85954991281324	choice	678.997236514493	NaN
681.14664840982	2.01613675862609	2	5	7	1	5	7	2.61214098539182	1.88923160081495	2.85954991281324	feedback	678.997236514493	NaN
684.279043877526	4.0323925557459	2	4	8	2	8	4	16.1621192465339	1.67308660338568	4.01870280659932	choice	688.311436433272	NaN
691.693763821822	2.01625227717159	2	4	8	2	8	4	16.1621192465339	1.67308660338568	4.01870280659932	feedback	688.311436433272	NaN
697.142371983195	4.16556209378177	2	11	2	1	11	2	100	16.1621192465339	4.14529226675222	choice	701.307934076976	NaN
704.140639844816	2.01615275841323	2	11	2	1	11	2	100	16.1621192465339	4.14529226675222	feedback	701.307934076976	NaN
707.90629972938	4.09891780550242	2	8	9	1	8	9	16.1621192465339	19.0043934374881	4.09447914089833	choice	712.005217534883	NaN
714.587914262826	2.01607691936078	2	8	9	1	8	9	16.1621192465339	19.0043934374881	4.09447914089833	feedback	712.005217534883	NaN
718.253586275241	3.1325388259138	2	4	10	2	10	4	50.2328997724974	1.67308660338568	3.12758720770944	choice	721.386125101155	NaN
724.01875080599	2.01615531838615	2	4	10	2	10	4	50.2328997724974	1.67308660338568	3.12758720770944	feedback	721.386125101155	NaN
727.051298239792	2.29937546380097	2	9	1	2	1	9	44.4858066222941	19.0043934374881	2.29155124144745	choice	729.350673703593	NaN
733.649541333725	2.01616203830054	2	9	1	2	1	9	44.4858066222941	19.0043934374881	2.29155124144745	feedback	729.350673703593	NaN
736.815411583666	1.73287757368234	2	1	2	1	1	2	44.4858066222941	16.1621192465339	1.72522870913963	choice	738.548289157348	NaN
742.230654401428	2.01611723886163	2	1	2	1	1	2	44.4858066222941	16.1621192465339	1.72522870913963	feedback	738.548289157348	NaN
746.86274219297	3.11584271429456	1	9	12	1	9	12	70.8751717969681	17.884245506376	3.10923287678452	choice	749.978584907265	744.36274219297
753.777640535045	2.01612971870054	1	9	12	1	9	12	70.8751717969681	17.884245506376	3.10923287678452	feedback	749.978584907265	744.36274219297
756.660176720994	6.91484906268306	1	7	12	1	7	12	90.3707077873196	17.884245506376	6.90496918598365	choice	763.575025783677	NaN
766.12436996786	2.01616203830054	1	7	12	1	7	12	90.3707077873196	17.884245506376	6.90496918598365	feedback	763.575025783677	NaN
769.773411147835	2.88264850454289	1	6	2	1	6	2	43.594028762536	4.89356064113839	2.87816696046502	choice	772.656059652378	NaN
776.638273634351	2.01614251853607	1	6	2	1	6	2	43.594028762536	4.89356064113839	2.87816696046502	feedback	772.656059652378	NaN
779.770815020223	2.41600312828086	1	7	9	1	7	9	90.3707077873196	70.8751717969681	2.39680368789413	choice	782.186818148504	NaN
785.485992334812	2.01611339890223	1	7	9	1	7	9	90.3707077873196	70.8751717969681	2.39680368789413	feedback	782.186818148504	NaN
790.834561744676	3.11582223452569	1	4	6	2	6	4	43.594028762536	14.0261042959477	3.10964663160848	choice	793.950383979201	NaN
798.33257504947	2.01618219804368	1	4	6	2	6	4	43.594028762536	14.0261042959477	3.10964663160848	feedback	793.950383979201	NaN
803.831168507022	1.86617863007996	1	9	2	1	9	2	70.8751717969681	4.89356064113839	1.85201240687456	choice	805.697347137102	NaN
807.81342824841	2.01617003820138	1	9	2	1	9	2	70.8751717969681	4.89356064113839	1.85201240687456	feedback	805.697347137102	NaN
811.245785732594	5.23202846427739	1	12	2	1	12	2	17.884245506376	4.89356064113839	5.22501863176876	choice	816.477814196871	NaN
819.110501020943	2.01610507901933	1	12	2	1	12	2	17.884245506376	4.89356064113839	5.22501863176876	feedback	816.477814196871	NaN
822.192993431439	1.36634038807824	1	10	7	2	7	10	90.3707077873196	4.89356064113839	1.35050442570355	choice	823.559333819518	NaN
826.075308180152	2.01613163868024	1	10	7	2	7	10	90.3707077873196	4.89356064113839	1.35050442570355	feedback	823.559333819518	NaN
828.691329612207	3.46577338714269	1	12	4	2	4	12	14.0261042959477	17.884245506376	3.45479272418015	choice	832.15710299935	NaN
834.273156911004	2.01617771810561	1	12	4	2	4	12	14.0261042959477	17.884245506376	3.45479272418015	feedback	832.15710299935	NaN
839.488370545136	4.09903844399378	1	2	4	2	4	2	14.0261042959477	4.89356064113839	4.09429194324184	choice	843.587408989129	NaN
846.05343357315	2.01613387864199	1	2	4	2	4	2	14.0261042959477	4.89356064113839	4.09429194324184	feedback	843.587408989129	NaN
851.418669655002	2.48266405635513	2	8	11	2	11	8	100	16.1621192465339	2.4621545523114	choice	853.901333711357	848.918669655002
856.733925880602	2.01613579862169	2	8	11	2	11	8	100	16.1621192465339	2.4621545523114	feedback	853.901333711357	848.918669655002
860.94941759127	2.84936155997275	2	9	3	2	3	9	50.2328997724975	19.0043934374881	2.83247697068145	choice	863.798779151242	NaN
866.381406760047	2.01616971820476	2	9	3	2	3	9	50.2328997724975	19.0043934374881	2.83247697068145	feedback	863.798779151242	NaN
870.230310725718	0.966530337711447	2	11	1	1	11	1	100	44.4858066222941	0.957575889449799	choice	871.196841063429	NaN
873.362820431998	2.01624907721998	2	11	1	1	11	1	100	44.4858066222941	0.957575889449799	feedback	871.196841063429	NaN
877.111955402797	2.2493997674901	2	3	7	1	3	7	50.2328997724975	1.88923160081495	2.24056019780983	choice	879.361355170287	NaN
881.993979595136	2.01612235879293	2	3	7	1	3	7	50.2328997724975	1.88923160081495	2.24056019780983	feedback	879.361355170287	NaN
884.693268788003	1.71624610124854	2	10	7	1	10	7	50.2328997724974	1.88923160081495	1.70263699108909	choice	886.409514889252	NaN
889.025499521769	2.01607851932931	2	10	7	1	10	7	50.2328997724974	1.88923160081495	1.70263699108909	feedback	886.409514889252	NaN
892.058011756017	4.74877401530102	2	1	8	1	1	8	44.4858066222941	16.1621192465339	4.73383116177865	choice	896.806785771318	NaN
901.005543610809	2.01617131818784	2	1	8	1	1	8	44.4858066222941	16.1621192465339	4.73383116177865	feedback	896.806785771318	NaN
906.104239339096	3.49919377005426	2	1	3	2	3	1	50.2328997724975	44.4858066222941	3.479355297648	choice	909.603433109151	NaN
914.068899300139	2.01613419863861	2	1	3	2	3	1	50.2328997724975	44.4858066222941	3.479355297648	feedback	909.603433109151	NaN
917.351407774433	1.54959090110788	2	9	5	1	9	5	19.0043934374881	2.61214098539182	1.5386681574164	choice	918.900998675541	NaN
921.383713611256	2.01607051944302	2	9	5	1	9	5	19.0043934374881	2.61214098539182	1.5386681574164	feedback	918.900998675541	NaN
925.465799946818	2.53281351047917	2	10	5	1	10	5	50.2328997724974	2.61214098539182	2.525192805595	choice	927.998613457297	NaN
930.547910922076	2.01617163816991	2	10	5	1	10	5	50.2328997724974	2.61214098539182	2.525192805595	feedback	927.998613457297	NaN
935.879743260797	2.13288186164573	2	11	3	1	11	3	100	50.2328997724975	2.11988586382358	choice	938.012625122443	NaN
940.478640426561	2.01616651825316	2	11	3	1	11	3	100	50.2328997724975	2.11988586382358	feedback	938.012625122443	NaN
947.543362498836	4.0490544278	1	4	3	1	4	3	14.0261042959477	11.0002740485006	4.04009197965206	choice	951.592416926636	945.043362498836
953.875156438051	2.01614219853946	1	4	3	1	4	3	14.0261042959477	11.0002740485006	4.04009197965206	feedback	951.592416926636	945.043362498836
957.757452626989	4.33222465384461	1	4	10	2	10	4	4.89356064113839	14.0261042959477	4.31635637186992	choice	962.089677280834	NaN
964.222439463949	2.01611755885824	1	4	10	2	10	4	4.89356064113839	14.0261042959477	4.31635637186992	feedback	962.089677280834	NaN
967.354915570657	7.04815203906037	1	3	4	2	4	3	14.0261042959477	11.0002740485006	7.04043789532443	choice	974.403067609717	NaN
976.71916606481	2.01613771860139	1	3	4	2	4	3	14.0261042959477	11.0002740485006	7.04043789532443	feedback	974.403067609717	NaN
981.118012607199	2.73261677694973	1	1	6	2	6	1	43.594028762536	0.759511501145757	2.71545571112074	choice	983.850629384149	NaN
987.283079347166	2.01610987895401	1	1	6	2	6	1	43.594028762536	0.759511501145757	2.71545571112074	feedback	983.850629384149	NaN
990.332261133386	1.74953688577807	1	6	4	1	6	4	43.594028762536	14.0261042959477	1.73786695141462	choice	992.081798019164	NaN
994.264572698128	2.01616395828023	1	6	4	1	6	4	43.594028762536	14.0261042959477	1.73786695141462	feedback	992.081798019164	NaN
999.613122908224	3.78238863579463	1	3	8	2	8	3	43.594028762536	11.0002740485006	3.7720374049677	choice	1003.39551154402	NaN
1005.51151745627	2.01623019744875	1	3	8	2	8	3	43.594028762536	11.0002740485006	3.7720374049677	feedback	1003.39551154402	NaN
1008.66074823386	5.79848763487826	1	2	1	1	2	1	4.89356064113839	0.759511501145757	5.78848423971795	choice	1014.45923586874	NaN
1018.64150815397	2.01613611861831	1	2	1	1	2	1	4.89356064113839	0.759511501145757	5.78848423971795	feedback	1014.45923586874	NaN
1021.27412361893	1.63293674094894	1	2	1	2	1	2	0.759511501145757	4.89356064113839	1.61604799173074	choice	1022.90706035988	NaN
1026.48942685196	2.0161178788403	1	2	1	2	1	2	0.759511501145757	4.89356064113839	1.61604799173074	feedback	1022.90706035988	NaN
1030.07181798371	3.41579353089037	1	4	9	2	9	4	70.8751717969681	14.0261042959477	3.40755363373319	choice	1033.4876115146	NaN
1037.16995755893	2.01601708011003	1	4	9	2	9	4	70.8751717969681	14.0261042959477	3.40755363373319	feedback	1033.4876115146	NaN
1040.10243680159	2.56608989519009	1	12	9	2	9	12	70.8751717969681	17.884245506376	2.55459211868583	choice	1042.66852669678	NaN
1044.7179804796	2.01613323866331	1	12	9	2	9	12	70.8751717969681	17.884245506376	2.55459211868583	feedback	1042.66852669678	NaN
